#time,accel_x,accel_y,accel_z
163588.591062,-1480.411884,-8956.491898,0.000000
163588.591382,-74.020594,-11547.212695,-76.609550
163588.591701,-3552.988522,-7772.162391,0.000000
163588.592021,-1554.432478,-7920.203579,-2221.676944
163588.592341,-962.267725,-9474.636058,-766.095498
163588.592661,-740.205942,-9474.636058,-612.876398
163588.592981,-962.267725,-9400.615463,-766.095498
163588.593301,1110.308913,-11251.130318,-76.609550
163588.593621,444.123565,-9622.677246,-76.609550
163588.593941,1110.308913,-11843.295072,-76.609550
163588.594261,-1406.391290,-7846.182985,-1072.533697
163588.594581,0.000000,-9548.656652,0.000000
163588.594901,0.000000,-7179.997637,0.000000
163588.595221,814.226536,-9178.553681,-919.314598
163588.595541,0.000000,-9474.636058,0.000000
163588.595861,0.000000,-9474.636058,153.219100
163588.596180,0.000000,-9178.553681,153.219100
163588.596500,1702.473667,-10510.924376,1991.848295
163588.596820,-2146.597232,-6291.750507,-1838.629195
163588.597140,0.000000,-8364.327145,612.876398
163588.597460,-74.020594,-9474.636058,689.485948
163588.597780,-74.020594,-9474.636058,-842.705048
163588.598100,-74.020594,-9474.636058,-76.609550
163588.598420,-1184.329507,-9548.656652,153.219100
163588.598740,-1036.288319,-9622.677246,-306.438199
163588.599060,-1036.288319,-9178.553681,-459.657299
163588.599380,-1184.329507,-9548.656652,0.000000
163588.599700,-814.226536,-9326.594869,-153.219100
163588.600020,-74.020594,-9474.636058,-995.924147
163588.600339,-2072.576638,-8364.327145,-2451.505594
163588.600659,-1776.494261,-9548.656652,0.000000
163588.600979,2294.638420,-11843.295072,-76.609550
163588.601299,0.000000,-9548.656652,-919.314598
163588.601619,74.020594,-9770.718434,-306.438199
163588.601939,0.000000,-9474.636058,0.000000
163588.602259,0.000000,-9030.512492,0.000000
163588.602579,-962.267725,-7476.080014,-3677.258390
163588.602899,444.123565,-10362.883188,-306.438199
163588.603219,-222.061783,-9252.574275,-536.266849
163588.603539,0.000000,-9030.512492,459.657299
163588.603859,1036.288319,-10362.883188,-76.609550
163588.604179,1998.556043,-10658.965565,-76.609550
163588.604499,0.000000,-8364.327145,1225.752797
163588.604818,1110.308913,-9474.636058,842.705048
163588.605138,-74.020594,-9474.636058,-76.609550
163588.605458,-2368.659014,-7772.162391,0.000000
163588.605778,-370.102971,-9104.533087,-1608.800546
163588.606098,-888.247130,-9474.636058,0.000000
163588.606418,-888.247130,-9400.615463,0.000000
163588.606738,-1110.308913,-9474.636058,-536.266849
163588.607058,-888.247130,-9178.553681,-76.609550
163588.607378,-222.061783,-9474.636058,-76.609550
163588.607698,-2072.576638,-8808.450710,-1225.752797
163588.608018,-592.164754,-9548.656652,306.438199
163588.608338,-74.020594,-10658.965565,-76.609550
163588.608658,-3256.906145,-7179.997637,-2451.505594
163588.608977,-74.020594,-9770.718434,-536.266849
163588.609297,0.000000,-9992.780217,-612.876398
163588.609617,222.061783,-9696.697840,-689.485948
163588.609937,74.020594,-9030.512492,-306.438199
163588.610257,1110.308913,-10658.965565,-76.609550
163588.610577,814.226536,-9326.594869,2068.457845
163588.610897,-74.020594,-8290.306550,-1608.800546
163588.611217,0.000000,-8364.327145,0.000000
163588.611537,1110.308913,-10140.821405,1225.752797
163588.611857,-1776.494261,-6587.832884,-2145.067394
163588.612177,444.123565,-9474.636058,383.047749
163588.612497,0.000000,-8956.491898,306.438199
163588.612817,-74.020594,-9474.636058,0.000000
163588.613136,-74.020594,-11251.130318,-76.609550
163588.613456,-74.020594,-10584.944971,0.000000
163588.613776,740.205942,-10066.800811,1149.143247
163588.614096,-666.185348,-9178.553681,-1302.362347
163588.614416,-1628.453072,-7772.162391,-1608.800546
163588.614736,-3552.988522,-7179.997637,0.000000
163588.615056,-666.185348,-8438.347739,-766.095498
163588.615376,-592.164754,-9548.656652,-842.705048
163588.615696,-888.247130,-9844.739029,-995.924147
163588.616016,-1480.411884,-9844.739029,-842.705048
163588.616336,-148.041188,-9548.656652,-76.609550
163588.616656,-74.020594,-9918.759623,-1302.362347
163588.616976,0.000000,-9104.533087,-919.314598
163588.617296,2294.638420,-11843.295072,-76.609550
163588.617615,-74.020594,-9178.553681,-76.609550
163588.617935,-2368.659014,-7179.997637,0.000000
163588.618255,888.247130,-9992.780217,-383.047749
163588.618575,444.123565,-9252.574275,-229.828649
163588.618895,444.123565,-9252.574275,76.609550
163588.619215,888.247130,-8734.430116,536.266849
163588.619535,1998.556043,-9178.553681,-76.609550
163588.619855,1554.432478,-9178.553681,842.705048
163588.620175,2294.638420,-9474.636058,-76.609550
163588.620495,0.000000,-7920.203579,0.000000
163588.620815,1184.329507,-8956.491898,1225.752797
163588.621135,-1184.329507,-7772.162391,-1838.629195
163588.621455,1480.411884,-9400.615463,-383.047749
163588.621774,1110.308913,-9326.594869,-306.438199
163588.622094,1850.514855,-9400.615463,0.000000
163588.622414,4071.132681,-9474.636058,-76.609550
163588.622734,4071.132681,-9474.636058,0.000000
163588.623054,3552.988522,-10510.924376,1455.581446
163588.623374,4071.132681,-9474.636058,-76.609550
163588.623694,3849.070898,-7179.997637,-2068.457845
163588.624014,3552.988522,-8364.327145,612.876398
163588.624334,4811.338623,-8808.450710,-689.485948
163588.624654,4663.297435,-9844.739029,-612.876398
163588.624974,4367.215058,-9548.656652,-1915.238745
163588.625294,4219.173869,-9326.594869,-1685.410096
163588.625614,5847.626942,-10732.986159,-1302.362347
163588.625934,4737.318029,-8290.306550,-2451.505594
163588.626253,6217.729913,-8660.409521,0.000000
163588.626573,9400.615463,-11547.212695,2068.457845
163588.626893,9400.615463,-9474.636058,1762.019645
163588.627213,5329.482782,-7179.997637,0.000000
163588.627533,6291.750507,-10955.047942,612.876398
163588.627853,3997.112087,-11251.130318,306.438199
163588.628173,2368.659014,-11843.295072,-153.219100
163588.628493,3182.885551,-11547.212695,-76.609550
163588.628813,4663.297435,-9474.636058,536.266849
163588.629133,4071.132681,-7402.059420,1762.019645
163588.629453,5847.626942,-6957.935855,-76.609550
163588.629773,2664.741391,-4219.173869,-2145.067394
163588.630093,4145.153275,-5403.503377,0.000000
163588.630412,2960.823768,-5403.503377,-2451.505594
163588.630732,4441.235652,-9548.656652,-2528.115143
163588.631052,3256.906145,-12509.480420,-2221.676944
163588.631372,1924.535449,-15174.221811,-1149.143247
163588.631692,4071.132681,-16580.613101,-76.609550
163588.632012,2294.638420,-14137.933492,2451.505594
163588.632332,4663.297435,-11843.295072,-76.609550
163588.632652,2072.576638,-6143.709319,-1072.533697
163588.632972,1184.329507,-3627.009116,-2528.115143
163588.633292,1998.556043,-5255.462188,-3447.429741
163588.633612,2812.782580,-7698.141797,-229.828649
163588.633932,1702.473667,-7179.997637,-306.438199
163588.634252,148.041188,-8586.388927,0.000000
163588.634571,-74.020594,-10658.965565,-76.609550
163588.634891,0.000000,-9474.636058,1838.629195
163588.635211,2294.638420,-9474.636058,1149.143247
163588.635531,296.082377,-8660.409521,0.000000
163588.635851,0.000000,-9548.656652,0.000000
163588.636171,1702.473667,-10658.965565,1149.143247
163588.636491,2294.638420,-10584.944971,1302.362347
163588.636811,-148.041188,-7476.080014,-2374.896044
163588.637131,-2072.576638,-7624.121203,-4673.182538
163588.637451,-1702.473667,-10066.800811,-3600.648841
163588.637771,0.000000,-9548.656652,0.000000
163588.638091,1850.514855,-11473.192101,2145.067394
163588.638411,444.123565,-10214.842000,2451.505594
163588.638731,1998.556043,-8290.306550,-76.609550
163588.639050,592.164754,-7772.162391,0.000000
163588.639370,4145.153275,-8956.491898,3677.258390
163588.639690,5551.544565,-8734.430116,4213.525239
163588.640010,6217.729913,-7179.997637,4366.744339
163588.640330,3108.864956,-5477.523971,-459.657299
163588.640650,-1184.329507,-7179.997637,-7354.516781
163588.640970,-1258.350101,-13027.624579,-7431.126331
163588.641290,-2294.638420,-14508.036463,-5975.544884
163588.641610,-1184.329507,-14656.077652,-3447.429741
163588.641930,-148.041188,-12435.459826,-2911.162892
163588.642250,1480.411884,-11103.089130,-2145.067394
163588.642570,8068.244768,-10584.944971,3140.991542
163588.642890,11843.295072,-5847.626942,6971.469032
163588.643209,13619.789333,-2442.679609,7354.516781
163588.643529,11843.295072,-2590.720797,7507.735880
163588.643849,6439.791695,-2220.617826,76.609550
163588.644169,5255.462188,-9474.636058,-76.609550
163588.644489,2960.823768,-11843.295072,0.000000
163588.644809,-518.144159,-12879.583391,-2834.553343
163588.645129,-3256.906145,-14137.933492,-6665.030833
163588.645449,-3404.947333,-15322.262999,-7124.688131
163588.645769,-1406.391290,-13619.789333,-4903.011187
163588.646089,4071.132681,-12731.542202,-76.609550
163588.646409,5847.626942,-9178.553681,536.266849
163588.646729,6587.832884,-6069.688724,1762.019645
163588.647049,8216.285956,-4145.153275,1149.143247
163588.647369,7624.121203,-5551.544565,4826.401637
163588.647688,6513.812290,-7031.956449,4596.572988
163588.648008,6883.915261,-8142.265362,4519.963438
163588.648328,6439.791695,-9030.512492,2987.772442
163588.648648,2368.659014,-11325.150913,-612.876398
163588.648968,-2368.659014,-11917.315666,-4903.011187
163588.649288,-222.061783,-15988.448347,-4979.620737
163588.649608,-74.020594,-16580.613101,-2834.553343
163588.649928,962.267725,-12731.542202,-4979.620737
163588.650248,2294.638420,-11695.253884,-1608.800546
163588.650568,3256.906145,-7920.203579,153.219100
163588.650888,5625.565159,-6143.709319,2834.553343
163588.651208,6439.791695,-5847.626942,3370.820191
163588.651528,7698.141797,-5995.668130,5209.449386
163588.651847,5551.544565,-5921.647536,3600.648841
163588.652167,2368.659014,-7179.997637,2145.067394
163588.652487,1184.329507,-10066.800811,0.000000
163588.652807,-666.185348,-12731.542202,-1302.362347
163588.653127,-3923.091493,-9548.656652,-6128.763984
163588.653447,-1998.556043,-12953.603985,-2987.772442
163588.653767,-962.267725,-12509.480420,-2221.676944
163588.654087,1184.329507,-10214.842000,612.876398
163588.654407,3478.967927,-7846.182985,1762.019645
163588.654727,4959.379811,-6957.935855,1762.019645
163588.655047,5255.462188,-6957.935855,1685.410096
163588.655367,2886.803174,-8882.471304,2374.896044
163588.655687,518.144159,-6957.935855,0.000000
163588.656007,592.164754,-8956.491898,0.000000
163588.656326,-666.185348,-8882.471304,-4366.744339
163588.656646,-444.123565,-10436.903782,-4136.915689
163588.656966,-518.144159,-11029.068536,-4366.744339
163588.657286,666.185348,-11399.171507,-2834.553343
163588.657606,3478.967927,-13027.624579,-76.609550
163588.657926,5477.523971,-11843.295072,2298.286494
163588.658246,2368.659014,-7179.997637,1225.752797
163588.658566,6809.894666,-10066.800811,4826.401637
163588.658886,8216.285956,-8142.265362,6052.154434
163588.659206,4737.318029,-4811.338623,2451.505594
163588.659526,5551.544565,-5921.647536,2987.772442
163588.659846,1924.535449,-6735.874072,-459.657299
163588.660166,-1258.350101,-8216.285956,-4060.306139
163588.660485,-888.247130,-11621.233289,-4366.744339
163588.660805,1258.350101,-12065.356855,-2911.162892
163588.661125,1110.308913,-11843.295072,-4060.306139
163588.661445,444.123565,-11103.089130,-2221.676944
163588.661765,2368.659014,-10140.821405,-3677.258390
163588.662085,7031.956449,-13027.624579,3600.648841
163588.662405,5181.441594,-5995.668130,612.876398
163588.662725,7254.018232,-7105.977043,4519.963438
163588.663045,4219.173869,-5033.400406,2451.505594
163588.663364,2072.576638,-6291.750507,-1302.362347
163588.663684,1036.288319,-9178.553681,-1915.238745
163588.664004,1480.411884,-11547.212695,-1302.362347
163588.664324,3478.967927,-11251.130318,-2528.115143
163588.664643,1998.556043,-12435.459826,-2221.676944
163588.664963,1702.473667,-12435.459826,-3140.991542
163588.665283,1480.411884,-11917.315666,-2451.505594
163588.665602,3775.050304,-10436.903782,383.047749
163588.665922,4515.256246,-8956.491898,2528.115143
163588.666242,2146.597232,-7402.059420,919.314598
163588.666562,3478.967927,-7254.018232,1302.362347
163588.666881,7179.997637,-7105.977043,3370.820191
163588.667201,8808.450710,-7105.977043,3600.648841
163588.667521,3552.988522,-5403.503377,1838.629195
163588.667841,3552.988522,-10288.862594,383.047749
163588.668160,518.144159,-11843.295072,-2528.115143
163588.668480,0.000000,-10140.821405,-3677.258390
163588.668800,-1554.432478,-12731.542202,-3140.991542
163588.669119,-962.267725,-12139.377449,-2451.505594
163588.669439,-222.061783,-9252.574275,-3217.601092
163588.669759,2294.638420,-8290.306550,-536.266849
163588.670079,6439.791695,-8882.471304,-76.609550
163588.670398,4071.132681,-8068.244768,1838.629195
163588.670718,6439.791695,-9474.636058,3600.648841
163588.671038,4663.297435,-5921.647536,1532.190996
163588.671358,1776.494261,-9548.656652,0.000000
163588.671677,2294.638420,-10066.800811,-2528.115143
163588.671997,1628.453072,-10955.047942,-1532.190996
163588.672317,1850.514855,-10658.965565,-1072.533697
163588.672636,2146.597232,-11843.295072,-3370.820191
163588.672956,2294.638420,-13027.624579,-2528.115143
163588.673276,-2368.659014,-10362.883188,-3447.429741
163588.673596,2886.803174,-11251.130318,842.705048
163588.673915,4737.318029,-7772.162391,-919.314598
163588.674235,1480.411884,-7179.997637,2451.505594
163588.674555,4663.297435,-9474.636058,-76.609550
163588.674874,5477.523971,-7476.080014,5439.278036
163588.675194,7920.203579,-6513.812290,4596.572988
163588.675514,7179.997637,-7402.059420,3677.258390
163588.675834,2590.720797,-11251.130318,1225.752797
163588.676153,0.000000,-5995.668130,0.000000
163588.676473,-1184.329507,-11029.068536,-3677.258390
163588.676793,-2590.720797,-10140.821405,-7354.516781
163588.677113,-1480.411884,-13397.727550,-4443.353888
163588.677432,-74.020594,-12435.459826,-2528.115143
163588.677752,2368.659014,-11621.233289,-919.314598
163588.678072,2886.803174,-9326.594869,306.438199
163588.678391,2442.679609,-7994.224174,1838.629195
163588.678711,3182.885551,-6957.935855,2068.457845
163588.679031,5699.585753,-6735.874072,612.876398
163588.679351,9400.615463,-8290.306550,2374.896044
163588.679670,7254.018232,-7772.162391,4979.620737
163588.679990,5329.482782,-9622.677246,1455.581446
163588.680310,3404.947333,-10214.842000,-1302.362347
163588.680630,0.000000,-11325.150913,-3677.258390
163588.680949,-3775.050304,-11917.315666,-3983.696590
163588.681269,-1184.329507,-11769.274478,-5056.230287
163588.681589,-74.020594,-11251.130318,-3140.991542
163588.681908,5847.626942,-12731.542202,-76.609550
163588.682228,4737.318029,-6587.832884,612.876398
163588.682548,9400.615463,-6513.812290,4213.525239
163588.682868,5921.647536,-4811.338623,3983.696590
163588.683187,3775.050304,-7031.956449,2681.334243
163588.683507,3849.070898,-6587.832884,842.705048
163588.683827,5181.441594,-9474.636058,2834.553343
163588.684147,6143.709319,-11103.089130,1149.143247
163588.684466,1480.411884,-11029.068536,0.000000
163588.684786,-1184.329507,-12805.562797,-1532.190996
163588.685106,-4811.338623,-11843.295072,-6511.811733
163588.685425,-9474.636058,-9548.656652,-9806.022374
163588.685745,-5995.668130,-13027.624579,-6511.811733
163588.686065,-1924.535449,-11621.233289,-2068.457845
163588.686385,2294.638420,-8290.306550,2681.334243
163588.686704,5181.441594,-5921.647536,4826.401637
163588.687024,3552.988522,-4811.338623,6435.202183
163588.687344,2368.659014,-4811.338623,2451.505594
163588.687664,1628.453072,-8290.306550,3064.381992
163588.687983,0.000000,-7328.038826,0.000000
163588.688303,0.000000,-10140.821405,-2451.505594
163588.688623,-2146.597232,-12139.377449,-2451.505594
163588.688942,-5551.544565,-13767.830521,-4443.353888
163588.689262,-9104.533087,-13249.686362,-6205.373534
163588.689582,-9474.636058,-11769.274478,-6281.983084
163588.689902,-4737.318029,-11769.274478,-995.924147
163588.690221,0.000000,-7772.162391,0.000000
163588.690541,0.000000,-5403.503377,5515.887586
163588.690861,3997.112087,-4885.359217,6894.859482
163588.691180,1702.473667,-4737.318029,4826.401637
163588.691500,-1110.308913,-2442.679609,1532.190996
163588.691820,1998.556043,-7698.141797,2374.896044
163588.692140,-2072.576638,-9252.574275,689.485948
163588.692459,-4367.215058,-12657.521608,-1762.019645
163588.692779,-6365.771101,-15174.221811,-3294.210641
163588.693099,-8882.471304,-12805.562797,-6511.811733
163588.693419,-9548.656652,-12731.542202,-6818.249932
163588.693738,-7698.141797,-11917.315666,-5745.716235
163588.694058,-4219.173869,-6809.894666,-5132.839837
163588.694378,592.164754,-8364.327145,1915.238745
163588.694697,4663.297435,-5477.523971,3677.258390
163588.695017,5033.400406,-3775.050304,5745.716235
163588.695337,3404.947333,-5033.400406,3600.648841
163588.695657,296.082377,-4811.338623,1915.238745
163588.695976,518.144159,-9474.636058,1149.143247
163588.696296,444.123565,-14063.912898,2068.457845
163588.696616,-74.020594,-13619.789333,-383.047749
163588.696936,-814.226536,-13175.665768,-4673.182538
163588.697255,-4441.235652,-12361.439231,-4903.011187
163588.697575,-6513.812290,-9548.656652,-7048.078582
163588.697895,-3627.009116,-9474.636058,-5592.497135
163588.698214,-666.185348,-8068.244768,-1378.971896
163588.698534,4663.297435,-7328.038826,2221.676944
163588.698854,7031.956449,-7698.141797,6818.249932
163588.699174,10214.842000,-6365.771101,9116.536426
163588.699493,4589.276840,-5995.668130,2451.505594
163588.699813,1184.329507,-7772.162391,3064.381992
163588.700133,-74.020594,-7698.141797,-2528.115143
163588.700453,-1850.514855,-12435.459826,-1915.238745
163588.700772,-3552.988522,-11325.150913,-4290.134789
163588.701092,1702.473667,-13619.789333,-2528.115143
163588.701412,-1258.350101,-12065.356855,-3524.039291
163588.701731,-3552.988522,-9326.594869,-4136.915689
163588.702051,-2368.659014,-8586.388927,-5362.668486
163588.702371,2368.659014,-8956.491898,0.000000
163588.702691,6365.771101,-4885.359217,612.876398
163588.703010,6513.812290,-7846.182985,5209.449386
163588.703330,3552.988522,-5995.668130,5515.887586
163588.703650,4367.215058,-8586.388927,3217.601092
163588.703970,0.000000,-5995.668130,-2451.505594
163588.704289,-74.020594,-11325.150913,-1072.533697
163588.704609,888.247130,-11399.171507,-842.705048
163588.704929,-740.205942,-12139.377449,-766.095498
163588.705248,-74.020594,-13027.624579,-76.609550
163588.705568,-74.020594,-12435.459826,-2221.676944
163588.705888,-3627.009116,-9252.574275,-1915.238745
163588.706208,-1258.350101,-7105.977043,-3140.991542
163588.706527,0.000000,-7179.997637,306.438199
163588.706847,0.000000,-7179.997637,1225.752797
163588.707167,-666.185348,-7179.997637,612.876398
163588.707486,-2516.700203,-9474.636058,1225.752797
163588.707806,-3108.864956,-7994.224174,-76.609550
163588.708126,-1258.350101,-9474.636058,-76.609550
163588.708446,-74.020594,-11251.130318,3600.648841
163588.708765,-1480.411884,-8882.471304,0.000000
163588.709085,-592.164754,-11621.233289,1532.190996
163588.709405,-1850.514855,-9474.636058,-1302.362347
163588.709725,-4145.153275,-8068.244768,-3753.867940
163588.710044,-4811.338623,-9474.636058,-4979.620737
163588.710364,-4145.153275,-8660.409521,-2681.334243
163588.710684,-1850.514855,-10214.842000,-536.266849
163588.711003,740.205942,-9030.512492,1149.143247
163588.711323,1110.308913,-9326.594869,3600.648841
163588.711643,-2368.659014,-8882.471304,2374.896044
163588.711963,-1554.432478,-7105.977043,-689.485948
163588.712282,-1776.494261,-8660.409521,306.438199
163588.712602,0.000000,-9548.656652,1532.190996
163588.712922,1110.308913,-10362.883188,1149.143247
163588.713242,1776.494261,-10732.986159,1838.629195
163588.713561,296.082377,-9030.512492,-689.485948
163588.713881,-2072.576638,-8808.450710,-689.485948
163588.714201,-1628.453072,-9548.656652,-1302.362347
163588.714520,-3552.988522,-7179.997637,-2451.505594
163588.714840,-592.164754,-9400.615463,-842.705048
163588.715160,1776.494261,-11473.192101,2451.505594
163588.715480,3478.967927,-9474.636058,-76.609550
163588.715799,-1554.432478,-8364.327145,0.000000
163588.716119,-2368.659014,-9548.656652,0.000000
163588.716439,-1924.535449,-8364.327145,-2451.505594
163588.716759,518.144159,-10955.047942,-612.876398
163588.717078,2368.659014,-9548.656652,689.485948
163588.717398,1850.514855,-9252.574275,0.000000
163588.717718,3478.967927,-9474.636058,-1302.362347
163588.718037,-2368.659014,-9844.739029,-1838.629195
163588.718357,-1332.370696,-9622.677246,-2757.943793
163588.718677,-666.185348,-10955.047942,-1915.238745
163588.718997,1776.494261,-9844.739029,0.000000
163588.719316,5033.400406,-10955.047942,842.705048
163588.719636,2368.659014,-7179.997637,1378.971896
163588.719956,2294.638420,-8364.327145,0.000000
163588.720275,2146.597232,-10658.965565,1762.019645
163588.720595,-1554.432478,-6291.750507,-2604.724693
163588.720915,2886.803174,-10658.965565,-76.609550
163588.721235,2072.576638,-9844.739029,2451.505594
163588.721554,2886.803174,-7624.121203,2145.067394
163588.721874,1776.494261,-8808.450710,1072.533697
163588.722194,-74.020594,-9104.533087,1149.143247
163588.722514,-3256.906145,-8364.327145,-2145.067394
163588.722833,-4737.318029,-9104.533087,-4366.744339
163588.723153,-4737.318029,-9548.656652,-1225.752797
163588.723473,1776.494261,-9844.739029,1225.752797
163588.723792,2294.638420,-7105.977043,0.000000
163588.724112,-74.020594,-7476.080014,1149.143247
163588.724432,-1184.329507,-7920.203579,-383.047749
163588.724752,-962.267725,-8438.347739,-1225.752797
163588.725071,-74.020594,-10362.883188,-76.609550
163588.725391,444.123565,-13619.789333,-76.609550
163588.725711,-2960.823768,-9548.656652,0.000000
163588.726031,-74.020594,-11251.130318,-1302.362347
163588.726350,-1850.514855,-10362.883188,-2528.115143
163588.726670,-3552.988522,-8364.327145,-3677.258390
163588.726990,-370.102971,-9474.636058,-2528.115143
163588.727309,-888.247130,-10584.944971,919.314598
163588.727629,2368.659014,-9252.574275,919.314598
163588.727949,814.226536,-8882.471304,995.924147
163588.728269,370.102971,-8956.491898,3370.820191
163588.728588,0.000000,-7179.997637,0.000000
163588.728908,1184.329507,-9844.739029,1378.971896
163588.729228,-74.020594,-9030.512492,1685.410096
163588.729548,-74.020594,-11547.212695,-76.609550
163588.729867,-4737.318029,-7772.162391,-4903.011187
163588.730187,-3627.009116,-10362.883188,-2528.115143
163588.730507,-4589.276840,-10214.842000,-1991.848295
163588.730826,-3923.091493,-9178.553681,-1762.019645
163588.731146,-1110.308913,-8068.244768,-306.438199
163588.731466,888.247130,-8586.388927,3600.648841
163588.731786,2294.638420,-6217.729913,1762.019645
163588.732105,0.000000,-4811.338623,-1762.019645
163588.732425,0.000000,-8512.368333,2451.505594
163588.732745,-74.020594,-7698.141797,306.438199
163588.733065,-2368.659014,-7772.162391,-2451.505594
163588.733384,-74.020594,-9474.636058,0.000000
163588.733704,-370.102971,-9844.739029,-1608.800546
163588.734024,0.000000,-10436.903782,-1608.800546
163588.734343,-74.020594,-11251.130318,-1608.800546
163588.734663,-74.020594,-12435.459826,-1608.800546
163588.734983,-74.020594,-10807.006753,689.485948
163588.735303,2294.638420,-9474.636058,-76.609550
163588.735622,1332.370696,-9844.739029,1302.362347
163588.735942,0.000000,-7179.997637,1838.629195
163588.736262,1406.391290,-7624.121203,842.705048
163588.736581,1702.473667,-9400.615463,1838.629195
163588.736901,1258.350101,-7402.059420,0.000000
163588.737221,-962.267725,-9992.780217,-1685.410096
163588.737541,1406.391290,-13027.624579,1149.143247
163588.737860,0.000000,-8364.327145,-2451.505594
163588.738180,1110.308913,-12731.542202,-76.609550
163588.738500,-1258.350101,-10214.842000,-1302.362347
163588.738820,-1850.514855,-9474.636058,-3140.991542
163588.739139,-3552.988522,-8364.327145,-2451.505594
163588.739459,-222.061783,-9326.594869,-1302.362347
163588.739779,962.267725,-9918.759623,76.609550
163588.740098,74.020594,-7920.203579,1072.533697
163588.740418,444.123565,-8586.388927,842.705048
163588.740738,1258.350101,-8290.306550,1762.019645
163588.741058,0.000000,-6883.915261,0.000000
163588.741377,-592.164754,-9548.656652,0.000000
163588.741697,2220.617826,-12361.439231,2374.896044
163588.742017,2220.617826,-9474.636058,842.705048
163588.742337,-2960.823768,-9548.656652,-2451.505594
163588.742656,-1776.494261,-10732.986159,-1685.410096
163588.742976,-1998.556043,-9992.780217,-2298.286494
163588.743296,-370.102971,-9400.615463,-612.876398
163588.743615,2294.638420,-9474.636058,-76.609550
163588.743935,1998.556043,-8586.388927,1915.238745
163588.744255,1702.473667,-8290.306550,-76.609550
163588.744575,0.000000,-6587.832884,1225.752797
163588.744894,1998.556043,-10584.944971,2681.334243
163588.745214,-1184.329507,-7476.080014,1532.190996
163588.745534,-3923.091493,-8068.244768,0.000000
163588.745854,-2442.679609,-10362.883188,-459.657299
163588.746173,-2516.700203,-8586.388927,-2451.505594
163588.746493,-3034.844362,-10140.821405,-1532.190996
163588.746813,-74.020594,-12731.542202,-76.609550
163588.747132,-2368.659014,-9548.656652,0.000000
163588.747452,-1406.391290,-9474.636058,-1608.800546
163588.747772,-2442.679609,-10140.821405,-2145.067394
163588.748092,-3404.947333,-9548.656652,0.000000
163588.748411,-74.020594,-8142.265362,-1149.143247
163588.748731,370.102971,-9548.656652,766.095498
163588.749051,1036.288319,-9548.656652,-383.047749
163588.749370,1332.370696,-10584.944971,229.828649
163588.749690,-74.020594,-11251.130318,2987.772442
163588.750010,-74.020594,-9474.636058,-76.609550
163588.750330,-370.102971,-8586.388927,-689.485948
163588.750649,-1184.329507,-6883.915261,-2374.896044
163588.750969,0.000000,-9548.656652,0.000000
163588.751289,1998.556043,-10362.883188,-76.609550
163588.751609,1998.556043,-8882.471304,1072.533697
163588.751928,0.000000,-9548.656652,-383.047749
163588.752248,-1628.453072,-8290.306550,-1838.629195
163588.752568,-2738.761985,-9770.718434,-1378.971896
163588.752887,-2368.659014,-8364.327145,0.000000
163588.753207,2590.720797,-7994.224174,1072.533697
163588.753527,2516.700203,-7772.162391,2374.896044
163588.753847,888.247130,-7476.080014,2681.334243
163588.754166,-296.082377,-5403.503377,-229.828649
163588.754486,-74.020594,-9474.636058,-1762.019645
163588.754806,1036.288319,-9474.636058,-76.609550
163588.755126,962.267725,-10362.883188,-842.705048
163588.755445,0.000000,-8364.327145,-1302.362347
163588.755765,-666.185348,-11029.068536,1225.752797
163588.756085,-3552.988522,-9548.656652,-2451.505594
163588.756404,-1850.514855,-8956.491898,-2834.553343
163588.756724,-518.144159,-8364.327145,-1991.848295
163588.757044,0.000000,-9992.780217,-1225.752797
163588.757364,2294.638420,-10955.047942,536.266849
163588.757683,814.226536,-8882.471304,459.657299
163588.758003,1776.494261,-10436.903782,1608.800546
163588.758323,-74.020594,-9474.636058,-76.609550
163588.758643,-1998.556043,-8956.491898,-2757.943793
163588.758962,0.000000,-11325.150913,306.438199
163588.759282,222.061783,-9548.656652,-1225.752797
163588.759602,1850.514855,-11399.171507,1378.971896
163588.759921,-296.082377,-9400.615463,306.438199
163588.760241,-1258.350101,-9252.574275,-689.485948
163588.760561,-814.226536,-7476.080014,-2145.067394
163588.760881,-888.247130,-8438.347739,-995.924147
163588.761200,-3256.906145,-7476.080014,0.000000
163588.761520,0.000000,-9548.656652,766.095498
163588.761840,592.164754,-9326.594869,2374.896044
163588.762160,0.000000,-7772.162391,1838.629195
163588.762479,-1850.514855,-7698.141797,-995.924147
163588.762799,-3330.926739,-8512.368333,-1991.848295
163588.763119,-1628.453072,-9548.656652,-995.924147
163588.763438,-666.185348,-8364.327145,-1915.238745
163588.763758,-74.020594,-9474.636058,-76.609550
163588.764078,-74.020594,-8290.306550,-689.485948
163588.764398,-1776.494261,-6587.832884,0.000000
163588.764717,814.226536,-9178.553681,-2451.505594
163588.765037,2294.638420,-10658.965565,2068.457845
163588.765357,0.000000,-8956.491898,0.000000
163588.765676,1110.308913,-9474.636058,1225.752797
163588.765996,0.000000,-9844.739029,1149.143247
163588.766316,-1036.288319,-8142.265362,-1225.752797
163588.766636,-1258.350101,-9474.636058,-1302.362347
163588.766955,-888.247130,-9104.533087,612.876398
163588.767275,2294.638420,-10955.047942,-76.609550
163588.767595,1184.329507,-9548.656652,2451.505594
163588.767915,0.000000,-9548.656652,2068.457845
163588.768234,-592.164754,-11547.212695,3140.991542
163588.768554,-3627.009116,-6439.791695,-3907.087040
163588.768874,-3775.050304,-9548.656652,-2451.505594
163588.769193,-296.082377,-10436.903782,-766.095498
163588.769513,-592.164754,-9548.656652,0.000000
163588.769833,0.000000,-9548.656652,0.000000
163588.770153,296.082377,-9844.739029,612.876398
163588.770472,-74.020594,-9992.780217,1149.143247
163588.770792,-666.185348,-9178.553681,-1302.362347
163588.771112,-2442.679609,-9474.636058,-1378.971896
163588.771431,888.247130,-10732.986159,306.438199
163588.771751,0.000000,-10807.006753,0.000000
163588.772071,814.226536,-9992.780217,1225.752797
163588.772391,74.020594,-8438.347739,383.047749
163588.772710,-3478.967927,-5403.503377,0.000000
163588.773030,-2664.741391,-5403.503377,-1685.410096
163588.773350,-814.226536,-6957.935855,-2451.505594
163588.773669,592.164754,-8364.327145,1225.752797
163588.773989,3478.967927,-9474.636058,2374.896044
163588.774309,2294.638420,-11843.295072,2374.896044
163588.774629,-1776.494261,-7624.121203,-612.876398
163588.774948,-3478.967927,-8808.450710,-2834.553343
163588.775268,-1776.494261,-9844.739029,-1838.629195
163588.775588,1184.329507,-9474.636058,-612.876398
163588.775908,1850.514855,-9326.594869,2068.457845
163588.776227,4071.132681,-10658.965565,3600.648841
163588.776547,0.000000,-6365.771101,0.000000
163588.776867,-2368.659014,-7179.997637,-3524.039291
163588.777186,-3552.988522,-7328.038826,-1225.752797
163588.777506,2294.638420,-11251.130318,-76.609550
163588.777826,592.164754,-9548.656652,383.047749
163588.778146,-370.102971,-9474.636058,0.000000
163588.778465,-1258.350101,-10436.903782,-536.266849
163588.778785,-4737.318029,-7772.162391,-2451.505594
163588.779105,-4737.318029,-8364.327145,-4290.134789
163588.779424,-2960.823768,-11621.233289,-1991.848295
163588.779744,2294.638420,-11251.130318,2374.896044
163588.780064,2294.638420,-10066.800811,995.924147
163588.780384,1998.556043,-9178.553681,1762.019645
163588.780703,1406.391290,-8216.285956,1762.019645
163588.781023,-1924.535449,-8216.285956,-919.314598
163588.781343,-2072.576638,-9400.615463,-1225.752797
163588.781662,0.000000,-10288.862594,-536.266849
163588.781982,0.000000,-8364.327145,612.876398
163588.782302,888.247130,-8512.368333,1532.190996
163588.782622,0.000000,-7179.997637,0.000000
163588.782941,-74.020594,-8882.471304,-1302.362347
163588.783261,-2442.679609,-8142.265362,-76.609550
163588.783581,2294.638420,-8290.306550,-689.485948
163588.783900,592.164754,-8956.491898,0.000000
163588.784220,296.082377,-9844.739029,1608.800546
163588.784540,0.000000,-9992.780217,1762.019645
163588.784860,-444.123565,-7476.080014,1149.143247
163588.785179,-3849.070898,-7476.080014,-2298.286494
163588.785499,-666.185348,-9474.636058,-1608.800546
163588.785819,-2368.659014,-7179.997637,-1838.629195
163588.786139,1850.514855,-11843.295072,2987.772442
163588.786458,3478.967927,-11843.295072,-76.609550
163588.786778,0.000000,-9548.656652,1225.752797
163588.787098,-2442.679609,-9252.574275,-2374.896044
163588.787417,-2516.700203,-9474.636058,-2604.724693
163588.787737,-370.102971,-9844.739029,-2757.943793
163588.788057,0.000000,-8660.409521,-2451.505594
163588.788377,-592.164754,-10140.821405,153.219100
163588.788696,296.082377,-9400.615463,689.485948
163588.789016,888.247130,-10140.821405,2068.457845
163588.789336,-74.020594,-9474.636058,-76.609550
163588.789655,0.000000,-7179.997637,0.000000
163588.789975,74.020594,-7179.997637,536.266849
163588.790295,2368.659014,-9104.533087,1149.143247
163588.790615,1332.370696,-10510.924376,1149.143247
163588.790934,-2072.576638,-8438.347739,-1608.800546
163588.791254,-3034.844362,-11251.130318,-1302.362347
163588.791574,-4367.215058,-10881.027347,-2451.505594
163588.791893,1332.370696,-9030.512492,-1149.143247
163588.792213,3256.906145,-9178.553681,1838.629195
163588.792533,3552.988522,-7772.162391,3677.258390
163588.792853,592.164754,-7550.100608,3600.648841
163588.793172,-1998.556043,-6439.791695,-1225.752797
163588.793492,-3552.988522,-7402.059420,-612.876398
163588.793812,-74.020594,-11103.089130,-76.609550
163588.794132,-74.020594,-9178.553681,-1302.362347
163588.794451,4071.132681,-11251.130318,2374.896044
163588.794771,-1036.288319,-9918.759623,229.828649
163588.795091,-2368.659014,-9326.594869,-612.876398
163588.795410,-4811.338623,-7994.224174,-3830.477490
163588.795730,-3404.947333,-8956.491898,-1991.848295
163588.796050,-666.185348,-8438.347739,-2068.457845
163588.796370,3330.926739,-8882.471304,1762.019645
163588.796689,2664.741391,-7476.080014,1915.238745
163588.797009,3404.947333,-7254.018232,1991.848295
163588.797329,-74.020594,-8290.306550,-2528.115143
163588.797648,-4589.276840,-9844.739029,-2145.067394
163588.797968,-3034.844362,-11029.068536,-3600.648841
163588.798288,-370.102971,-11917.315666,-995.924147
163588.798608,1850.514855,-10955.047942,2374.896044
163588.798927,2072.576638,-9844.739029,3983.696590
163588.799247,814.226536,-8956.491898,612.876398
163588.799567,-74.020594,-8290.306550,-76.609550
163588.799886,-1258.350101,-8290.306550,-1302.362347
163588.800206,1110.308913,-7772.162391,0.000000
163588.800526,4663.297435,-8882.471304,2374.896044
163588.800846,1924.535449,-9326.594869,2911.162892
163588.801165,-2368.659014,-7698.141797,0.000000
163588.801485,-4737.318029,-9474.636058,-2604.724693
163588.801805,-4737.318029,-10732.986159,-2451.505594
163588.802125,-3552.988522,-7772.162391,-4903.011187
163588.802444,-3552.988522,-9548.656652,-1225.752797
163588.802764,0.000000,-10881.027347,1225.752797
163588.803084,1184.329507,-8364.327145,1532.190996
163588.803403,518.144159,-6661.853478,-1302.362347
163588.803723,-222.061783,-8290.306550,-76.609550
163588.804043,-2590.720797,-8142.265362,-1991.848295
163588.804363,222.061783,-9992.780217,-229.828649
163588.804682,666.185348,-9178.553681,383.047749
163588.805002,0.000000,-10732.986159,2987.772442
163588.805322,814.226536,-8290.306550,459.657299
163588.805641,-2368.659014,-7772.162391,0.000000
163588.805961,-74.020594,-10732.986159,459.657299
163588.806281,-74.020594,-9474.636058,-689.485948
163588.806601,-74.020594,-8734.430116,-2528.115143
163588.806920,1702.473667,-11399.171507,1991.848295
163588.807240,592.164754,-8290.306550,-306.438199
163588.807560,-2664.741391,-8882.471304,-1532.190996
163588.807879,-3034.844362,-11843.295072,-689.485948
163588.808199,-1258.350101,-9918.759623,-383.047749
163588.808519,1702.473667,-10510.924376,2298.286494
163588.808839,4663.297435,-9474.636058,1149.143247
163588.809158,592.164754,-8364.327145,612.876398
163588.809478,-1776.494261,-7772.162391,0.000000
163588.809798,-1258.350101,-8882.471304,-1302.362347
163588.810117,-1628.453072,-10288.862594,-2145.067394
163588.810437,-888.247130,-10510.924376,-1532.190996
163588.810757,-148.041188,-10140.821405,-919.314598
163588.811077,1702.473667,-11917.315666,2374.896044
163588.811396,0.000000,-7179.997637,-2451.505594
163588.811716,-3552.988522,-7476.080014,-1225.752797
163588.812036,-2442.679609,-10362.883188,-1302.362347
163588.812356,-74.020594,-9474.636058,-76.609550
163588.812675,0.000000,-6587.832884,-2451.505594
163588.812995,3256.906145,-9918.759623,3600.648841
163588.813315,3404.947333,-8660.409521,2604.724693
163588.813634,2516.700203,-8512.368333,1302.362347
163588.813954,-592.164754,-9178.553681,-229.828649
163588.814274,-2368.659014,-9104.533087,-1685.410096
163588.814594,370.102971,-9326.594869,-2068.457845
163588.814913,1776.494261,-9918.759623,1225.752797
163588.815233,0.000000,-7772.162391,1225.752797
163588.815553,0.000000,-9622.677246,1225.752797
163588.815872,-4737.318029,-5699.585753,-2451.505594
163588.816192,-2368.659014,-8512.368333,-2221.676944
163588.816512,-2368.659014,-8734.430116,-1915.238745
163588.816832,-962.267725,-9474.636058,-766.095498
163588.817151,1110.308913,-11843.295072,2374.896044
163588.817471,-74.020594,-9992.780217,2068.457845
163588.817791,-1554.432478,-9696.697840,-1302.362347
163588.818110,-4219.173869,-7105.977043,-4443.353888
163588.818430,-4145.153275,-8956.491898,-2451.505594
163588.818750,0.000000,-8956.491898,-2451.505594
163588.819070,2294.638420,-10362.883188,612.876398
163588.819389,3701.029710,-10214.842000,1302.362347
163588.819709,740.205942,-9770.718434,-383.047749
163588.820029,-1554.432478,-9252.574275,-1225.752797
163588.820349,-1258.350101,-11843.295072,-689.485948
163588.820668,0.000000,-10807.006753,0.000000
163588.820988,3478.967927,-11547.212695,2681.334243
163588.821308,3478.967927,-9474.636058,2374.896044
163588.821627,1554.432478,-7105.977043,2374.896044
163588.821947,2294.638420,-7105.977043,-76.609550
163588.822267,-1998.556043,-7328.038826,-612.876398
163588.822587,-2738.761985,-8438.347739,-612.876398
163588.822906,-1406.391290,-9474.636058,-919.314598
163588.823226,-74.020594,-11843.295072,2068.457845
163588.823546,-2368.659014,-9474.636058,536.266849
163588.823865,-1850.514855,-8734.430116,-1915.238745
163588.824185,-3256.906145,-9548.656652,-1838.629195
163588.824505,-4737.318029,-6291.750507,-3677.258390
163588.824825,-74.020594,-11843.295072,-76.609550
163588.825144,0.000000,-10732.986159,1378.971896
163588.825464,1776.494261,-9104.533087,536.266849
163588.825784,2368.659014,-9548.656652,1915.238745
163588.826103,296.082377,-7624.121203,842.705048
163588.826423,-3552.988522,-6143.709319,-2451.505594
163588.826743,-370.102971,-9178.553681,-1302.362347
163588.827063,-888.247130,-10436.903782,-1762.019645
163588.827382,-1184.329507,-11917.315666,-1455.581446
163588.827702,-1850.514855,-11029.068536,-1149.143247
163588.828022,-74.020594,-10658.965565,-76.609550
163588.828342,-148.041188,-11769.274478,1532.190996
163588.828661,-74.020594,-9178.553681,-1915.238745
163588.828981,-1406.391290,-8882.471304,-1149.143247
163588.829301,888.247130,-9844.739029,3064.381992
163588.829620,2442.679609,-4811.338623,0.000000
163588.829940,3182.885551,-8882.471304,2604.724693
163588.830260,740.205942,-8882.471304,1378.971896
163588.830580,-1332.370696,-9178.553681,-1378.971896
163588.830899,-666.185348,-11843.295072,-76.609550
163588.831219,-2442.679609,-9474.636058,-1302.362347
163588.831539,-2812.782580,-11769.274478,-76.609550
163588.831858,-1110.308913,-9474.636058,-76.609550
163588.832178,-74.020594,-9474.636058,-76.609550
163588.832498,0.000000,-5995.668130,612.876398
163588.832818,-74.020594,-5921.647536,-842.705048
163588.833137,-814.226536,-7105.977043,0.000000
163588.833457,222.061783,-8586.388927,919.314598
163588.833777,1258.350101,-8290.306550,0.000000
163588.834096,-74.020594,-10066.800811,-689.485948
163588.834416,-1110.308913,-11769.274478,-306.438199
163588.834736,-2590.720797,-10140.821405,-4903.011187
163588.835056,-370.102971,-13027.624579,-1608.800546
163588.835375,-666.185348,-10955.047942,-1685.410096
163588.835695,0.000000,-8364.327145,-2451.505594
163588.836015,3478.967927,-9178.553681,766.095498
163588.836334,1998.556043,-7772.162391,1762.019645
163588.836654,2960.823768,-8734.430116,1455.581446
163588.836974,4441.235652,-7550.100608,2374.896044
163588.837294,4663.297435,-8290.306550,3294.210641
163588.837613,1110.308913,-10658.965565,2374.896044
163588.837933,-2294.638420,-7846.182985,-1455.581446
163588.838253,-2960.823768,-9474.636058,-689.485948
163588.838573,-2368.659014,-10732.986159,-1072.533697
163588.838892,-4737.318029,-9548.656652,-3983.696590
163588.839212,-3330.926739,-10955.047942,-1532.190996
163588.839532,-1554.432478,-10288.862594,-459.657299
163588.839851,-1628.453072,-7994.224174,-459.657299
163588.840171,-74.020594,-9474.636058,-1302.362347
163588.840491,0.000000,-8956.491898,2145.067394
163588.840811,2886.803174,-8586.388927,1149.143247
163588.841130,1036.288319,-7624.121203,689.485948
163588.841450,0.000000,-7772.162391,1225.752797
163588.841770,0.000000,-8364.327145,1225.752797
163588.842089,-740.205942,-7994.224174,-2451.505594
163588.842409,-1924.535449,-10510.924376,-1455.581446
163588.842729,-2812.782580,-10510.924376,-3753.867940
163588.843049,-3923.091493,-10955.047942,-1532.190996
163588.843368,-1332.370696,-10807.006753,-1915.238745
163588.843688,-2368.659014,-9548.656652,-1225.752797
163588.844008,-1036.288319,-6883.915261,-2068.457845
163588.844327,0.000000,-5995.668130,0.000000
163588.844647,2664.741391,-8808.450710,2987.772442
163588.844967,1184.329507,-5995.668130,1225.752797
163588.845287,2294.638420,-9326.594869,1838.629195
163588.845606,74.020594,-9474.636058,1378.971896
163588.845926,-1480.411884,-9178.553681,-766.095498
163588.846246,-2442.679609,-9992.780217,-1915.238745
163588.846566,-666.185348,-10658.965565,-2221.676944
163588.846885,-1554.432478,-10658.965565,-2528.115143
163588.847205,-1258.350101,-10362.883188,-1915.238745
163588.847525,-2368.659014,-10288.862594,-1149.143247
163588.847844,444.123565,-11325.150913,1685.410096
163588.848164,0.000000,-7772.162391,0.000000
163588.848484,518.144159,-8216.285956,0.000000
163588.848804,296.082377,-8660.409521,76.609550
163588.849123,0.000000,-8734.430116,1149.143247
163588.849443,1702.473667,-8290.306550,-76.609550
163588.849763,1406.391290,-9548.656652,995.924147
163588.850082,-74.020594,-9178.553681,-2068.457845
163588.850402,-4441.235652,-9548.656652,-2451.505594
163588.850722,-4515.256246,-9844.739029,-4290.134789
163588.851042,592.164754,-12583.501014,1762.019645
163588.851361,222.061783,-10584.944971,-995.924147
163588.851681,518.144159,-11547.212695,2374.896044
163588.852001,1036.288319,-7698.141797,1225.752797
163588.852320,0.000000,-6587.832884,0.000000
163588.852640,1702.473667,-8142.265362,0.000000
163588.852960,2664.741391,-8660.409521,1608.800546
163588.853280,1702.473667,-7846.182985,842.705048
163588.853599,-2368.659014,-6587.832884,0.000000
163588.853919,-2368.659014,-12953.603985,-76.609550
163588.854239,0.000000,-11029.068536,306.438199
163588.854559,-1628.453072,-9548.656652,-1915.238745
163588.854878,-1258.350101,-10066.800811,-1225.752797
163588.855198,222.061783,-9992.780217,-1302.362347
163588.855518,0.000000,-8512.368333,-2145.067394
163588.855837,740.205942,-8660.409521,0.000000
163588.856157,296.082377,-7179.997637,-2298.286494
163588.856477,0.000000,-8660.409521,306.438199
163588.856797,-1258.350101,-9030.512492,-1685.410096
163588.857116,-74.020594,-12435.459826,-76.609550
163588.857436,-1776.494261,-9104.533087,-2451.505594
163588.857756,-1554.432478,-11621.233289,229.828649
163588.858075,-296.082377,-10140.821405,0.000000
163588.858395,444.123565,-7994.224174,-842.705048
163588.858715,74.020594,-6439.791695,-1455.581446
163588.859035,2294.638420,-10658.965565,-76.609550
163588.859354,1110.308913,-8586.388927,-1225.752797
163588.859674,74.020594,-8956.491898,1225.752797
163588.859994,1406.391290,-12213.398043,2987.772442
163588.860313,-3256.906145,-7179.997637,0.000000
163588.860633,-2590.720797,-8216.285956,-1072.533697
163588.860953,-1258.350101,-9326.594869,-995.924147
163588.861273,-370.102971,-7772.162391,-306.438199
163588.861592,-370.102971,-7402.059420,-995.924147
163588.861912,-1776.494261,-9622.677246,689.485948
163588.862232,-1184.329507,-7920.203579,612.876398
163588.862551,518.144159,-8734.430116,1225.752797
163588.862871,-74.020594,-9474.636058,-76.609550
163588.863191,-4737.318029,-7179.997637,-4903.011187
163588.863511,-666.185348,-10658.965565,-1915.238745
163588.863830,-2072.576638,-10584.944971,-689.485948
163588.864150,-2294.638420,-11177.109724,-766.095498
163588.864470,-1998.556043,-11029.068536,-995.924147
163588.864790,148.041188,-11399.171507,1149.143247
163588.865110,74.020594,-8734.430116,-1991.848295
163588.865430,1258.350101,-9030.512492,-459.657299
163588.865750,0.000000,-9474.636058,306.438199
163588.866070,1554.432478,-10140.821405,0.000000
163588.866390,-1184.329507,-7179.997637,0.000000
163588.866710,-74.020594,-8882.471304,-689.485948
163588.867030,0.000000,-7846.182985,0.000000
163588.867349,3552.988522,-8290.306550,1225.752797
163588.867669,3478.967927,-9474.636058,-76.609550
163588.867989,2368.659014,-11177.109724,2757.943793
163588.868309,-2886.803174,-7476.080014,-2451.505594
163588.868629,-3552.988522,-9844.739029,-1991.848295
163588.868949,-2368.659014,-8956.491898,-1302.362347
163588.869269,-1480.411884,-7772.162391,-842.705048
163588.869589,1332.370696,-7328.038826,1302.362347
163588.869909,1702.473667,-7994.224174,1072.533697
163588.870229,-1184.329507,-7179.997637,-842.705048
163588.870549,-1776.494261,-9252.574275,306.438199
163588.870869,-666.185348,-9474.636058,-76.609550
163588.871189,0.000000,-10881.027347,-689.485948
163588.871509,-370.102971,-8882.471304,0.000000
163588.871829,0.000000,-10436.903782,383.047749
163588.872149,0.000000,-10140.821405,0.000000
163588.872469,-1776.494261,-8364.327145,0.000000
163588.872788,-2442.679609,-9770.718434,-2911.162892
163588.873108,-2442.679609,-11843.295072,-689.485948
163588.873428,-666.185348,-6735.874072,-3677.258390
163588.873748,888.247130,-9844.739029,0.000000
163588.874068,7031.956449,-11843.295072,4213.525239
163588.874388,2664.741391,-8882.471304,1532.190996
163588.874708,-296.082377,-10066.800811,1225.752797
163588.875028,-1184.329507,-7920.203579,-536.266849
163588.875348,0.000000,-8956.491898,0.000000
163588.875668,0.000000,-7179.997637,0.000000
163588.875988,0.000000,-8364.327145,306.438199
163588.876308,2294.638420,-10658.965565,1608.800546
163588.876628,-740.205942,-7772.162391,0.000000
163588.876948,-1258.350101,-6883.915261,-1915.238745
163588.877268,-74.020594,-11251.130318,-76.609550
163588.877588,0.000000,-8364.327145,-612.876398
163588.877907,2072.576638,-9548.656652,306.438199
163588.878227,2812.782580,-9252.574275,1991.848295
163588.878547,0.000000,-7476.080014,306.438199
163588.878867,-370.102971,-8882.471304,-76.609550
163588.879187,-2220.617826,-5995.668130,-1532.190996
163588.879507,-1480.411884,-7624.121203,-2451.505594
163588.879827,-74.020594,-11251.130318,-2528.115143
163588.880147,-74.020594,-10658.965565,-1915.238745
163588.880467,-1480.411884,-11399.171507,-383.047749
163588.880787,-2146.597232,-10214.842000,-1608.800546
163588.881107,-3108.864956,-9030.512492,-2834.553343
163588.881427,-1258.350101,-9992.780217,-1302.362347
163588.881747,2516.700203,-9548.656652,1378.971896
163588.882067,3478.967927,-10066.800811,2068.457845
163588.882387,3182.885551,-11251.130318,4213.525239
163588.882707,0.000000,-5995.668130,612.876398
163588.883027,-1184.329507,-7179.997637,0.000000
163588.883346,-74.020594,-9474.636058,-76.609550
163588.883666,-1702.473667,-8364.327145,-612.876398
163588.883986,518.144159,-9770.718434,-842.705048
163588.884306,74.020594,-9992.780217,306.438199
163588.884626,-1776.494261,-10732.986159,306.438199
163588.884946,-4145.153275,-11029.068536,-1225.752797
163588.885266,-4737.318029,-7179.997637,-2451.505594
163588.885586,-2072.576638,-9030.512492,-919.314598
163588.885906,962.267725,-9474.636058,612.876398
163588.886226,1110.308913,-6217.729913,0.000000
163588.886546,4071.132681,-9474.636058,3600.648841
163588.886866,1702.473667,-8216.285956,2451.505594
163588.887186,-1406.391290,-7698.141797,-689.485948
163588.887506,-2738.761985,-9474.636058,-2757.943793
163588.887826,-2368.659014,-9548.656652,-2451.505594
163588.888146,-74.020594,-10955.047942,-2834.553343
163588.888465,-1628.453072,-11325.150913,0.000000
163588.888785,-2368.659014,-10140.821405,-3677.258390
163588.889105,-3552.988522,-10140.821405,-1225.752797
163588.889425,-666.185348,-7254.018232,-4366.744339
163588.889745,1036.288319,-7105.977043,306.438199
163588.890065,4293.194464,-6587.832884,1762.019645
163588.890385,4737.318029,-7402.059420,3217.601092
163588.890705,3182.885551,-10658.965565,2987.772442
163588.891025,-666.185348,-11103.089130,-76.609550
163588.891345,-4219.173869,-10066.800811,-2528.115143
163588.891665,-2738.761985,-12435.459826,-1302.362347
163588.891985,-2072.576638,-9548.656652,-3064.381992
163588.892305,0.000000,-9548.656652,0.000000
163588.892625,1702.473667,-11251.130318,-76.609550
163588.892945,0.000000,-9548.656652,689.485948
163588.893265,-1406.391290,-7476.080014,-1225.752797
163588.893585,-2220.617826,-8438.347739,-1072.533697
163588.893904,1036.288319,-10436.903782,2374.896044
163588.894224,2368.659014,-8808.450710,1991.848295
163588.894544,4441.235652,-9844.739029,5745.716235
163588.894864,1998.556043,-8290.306550,1149.143247
163588.895184,-3256.906145,-9178.553681,-1685.410096
163588.895504,-6735.874072,-6587.832884,-4903.011187
163588.895824,-2442.679609,-10807.006753,-2528.115143
163588.896144,-592.164754,-9918.759623,-2604.724693
163588.896464,296.082377,-10732.986159,383.047749
163588.896784,1406.391290,-10510.924376,-153.219100
163588.897104,888.247130,-10658.965565,612.876398
163588.897424,-4737.318029,-5995.668130,-2451.505594
163588.897744,-1184.329507,-9400.615463,-919.314598
163588.898064,2590.720797,-8290.306550,766.095498
163588.898384,4663.297435,-9474.636058,1149.143247
163588.898704,4663.297435,-11843.295072,2987.772442
163588.899023,592.164754,-10140.821405,2145.067394
163588.899343,-1184.329507,-9326.594869,-842.705048
163588.899663,-2368.659014,-9918.759623,-1378.971896
163588.899983,-1776.494261,-9548.656652,-1532.190996
163588.900303,444.123565,-10658.965565,-229.828649
163588.900623,2294.638420,-9770.718434,1455.581446
163588.900943,1184.329507,-7772.162391,-1608.800546
163588.901263,-1776.494261,-9548.656652,306.438199
163588.901583,-74.020594,-9474.636058,-76.609550
163588.901903,-4145.153275,-7179.997637,-2451.505594
163588.902223,-2738.761985,-10066.800811,-1378.971896
163588.902543,-666.185348,-9474.636058,-919.314598
163588.902863,74.020594,-10807.006753,612.876398
163588.903183,-1406.391290,-7179.997637,0.000000
163588.903503,-1258.350101,-8290.306550,-995.924147
163588.903823,-1702.473667,-9474.636058,-1838.629195
163588.904142,296.082377,-8364.327145,-1915.238745
163588.904462,1110.308913,-9474.636058,-76.609550
163588.904782,4663.297435,-12139.377449,2374.896044
163588.905102,2960.823768,-9548.656652,2757.943793
163588.905422,1998.556043,-8290.306550,229.828649
163588.905742,-2072.576638,-7105.977043,-1302.362347
163588.906062,-3552.988522,-7179.997637,-2451.505594
163588.906382,-962.267725,-8734.430116,-2911.162892
163588.906702,1776.494261,-9918.759623,1685.410096
163588.907022,1628.453072,-9548.656652,995.924147
163588.907342,-740.205942,-10510.924376,1072.533697
163588.907662,-2368.659014,-8586.388927,-842.705048
163588.907982,-2960.823768,-9252.574275,-1685.410096
163588.908302,-1036.288319,-9178.553681,383.047749
163588.908622,2294.638420,-10658.965565,2834.553343
163588.908942,2294.638420,-9474.636058,1149.143247
163588.909262,0.000000,-5995.668130,0.000000
163588.909581,-74.020594,-10066.800811,-383.047749
163588.909901,-3478.967927,-9844.739029,-3140.991542
163588.910221,-5181.441594,-10066.800811,-3830.477490
163588.910541,-1776.494261,-11769.274478,-3140.991542
163588.910861,1702.473667,-11251.130318,-76.609550
163588.911181,666.185348,-9696.697840,612.876398
163588.911501,-962.267725,-8068.244768,-995.924147
163588.911821,-1776.494261,-7476.080014,612.876398
163588.912141,-370.102971,-7179.997637,1378.971896
163588.912461,0.000000,-4811.338623,0.000000
163588.912781,3404.947333,-7105.977043,1149.143247
163588.913101,2442.679609,-8734.430116,995.924147
163588.913421,666.185348,-10436.903782,383.047749
163588.913741,-1554.432478,-11843.295072,-2528.115143
163588.914061,-1258.350101,-13027.624579,-1685.410096
163588.914381,-666.185348,-11695.253884,-1455.581446
163588.914700,-1258.350101,-9178.553681,-3140.991542
163588.915020,814.226536,-11251.130318,-76.609550
163588.915340,0.000000,-8364.327145,3064.381992
163588.915660,1110.308913,-6587.832884,612.876398
163588.915980,962.267725,-6809.894666,2145.067394
163588.916300,1554.432478,-7105.977043,1455.581446
163588.916620,1628.453072,-8586.388927,-76.609550
163588.916940,1998.556043,-11325.150913,2298.286494
163588.917260,-2368.659014,-9992.780217,-1225.752797
163588.917580,-2516.700203,-13249.686362,-689.485948
163588.917900,-3627.009116,-11843.295072,-2528.115143
163588.918220,-4811.338623,-11177.109724,-2681.334243
163588.918540,-4441.235652,-7772.162391,0.000000
163588.918860,-222.061783,-8216.285956,-459.657299
163588.919180,4145.153275,-10510.924376,1991.848295
163588.919500,4885.359217,-6513.812290,2451.505594
163588.919820,814.226536,-6661.853478,-689.485948
163588.920139,-1850.514855,-9178.553681,-1608.800546
163588.920459,-2812.782580,-8364.327145,-4213.525239
163588.920779,-4737.318029,-9548.656652,-2451.505594
163588.921099,296.082377,-11917.315666,612.876398
163588.921419,2294.638420,-11843.295072,2757.943793
163588.921739,0.000000,-9548.656652,0.000000
163588.922059,962.267725,-8290.306550,1302.362347
163588.922379,1332.370696,-8364.327145,0.000000
163588.922699,370.102971,-7920.203579,-306.438199
163588.923019,-74.020594,-8734.430116,-76.609550
163588.923339,1702.473667,-10658.965565,2374.896044
163588.923659,3478.967927,-11251.130318,2068.457845
163588.923979,222.061783,-7476.080014,306.438199
163588.924299,-2368.659014,-7179.997637,-1915.238745
163588.924619,-2960.823768,-7772.162391,0.000000
163588.924939,-5255.462188,-8660.409521,-3524.039291
163588.925258,-1850.514855,-11547.212695,-919.314598
163588.925578,-1924.535449,-10066.800811,-612.876398
163588.925898,-3997.112087,-9770.718434,-1072.533697
163588.926218,-2442.679609,-11843.295072,-1378.971896
163588.926538,-4737.318029,-9548.656652,-1532.190996
163588.926858,-74.020594,-9474.636058,-76.609550
163588.927178,-740.205942,-7402.059420,1455.581446
163588.927498,0.000000,-7402.059420,1991.848295
163588.927818,0.000000,-6587.832884,1838.629195
163588.928138,-2738.761985,-8290.306550,766.095498
163588.928458,-6587.832884,-8290.306550,-3064.381992
163588.928778,-8216.285956,-11103.089130,-2068.457845
163588.929098,-7772.162391,-9548.656652,-2757.943793
163588.929418,-5699.585753,-10066.800811,-1302.362347
163588.929738,-5625.565159,-9548.656652,995.924147
163588.930058,-7994.224174,-5403.503377,0.000000
163588.930378,-3997.112087,-9252.574275,1685.410096
163588.930697,-2442.679609,-8882.471304,2374.896044
163588.931017,-6513.812290,-6587.832884,306.438199
163588.931337,-5107.421000,-8438.347739,1608.800546
163588.931657,-4811.338623,-8586.388927,919.314598
163588.931977,-4071.132681,-10584.944971,612.876398
163588.932297,-7179.997637,-7994.224174,-3447.429741
163588.932617,-8438.347739,-9918.759623,-2221.676944
163588.932937,-8364.327145,-10362.883188,-3753.867940
163588.933257,-7698.141797,-9548.656652,-1838.629195
163588.933577,-5773.606348,-7179.997637,-3217.601092
163588.933897,-7105.977043,-7476.080014,0.000000
163588.934217,-3034.844362,-9178.553681,306.438199
163588.934537,-3552.988522,-6513.812290,0.000000
163588.934857,-4737.318029,-8142.265362,-459.657299
163588.935177,-5625.565159,-7994.224174,-995.924147
163588.935497,-3997.112087,-8956.491898,-1149.143247
163588.935816,-6513.812290,-8364.327145,-1225.752797
163588.936136,-2812.782580,-11103.089130,-689.485948
163588.936456,-3108.864956,-10140.821405,0.000000
163588.936776,-3034.844362,-9548.656652,-2451.505594
163588.937096,-3627.009116,-9474.636058,-3140.991542
163588.937416,-4441.235652,-10066.800811,-919.314598
163588.937736,-2294.638420,-10288.862594,612.876398
163588.938056,0.000000,-8290.306550,2834.553343
163588.938376,296.082377,-7476.080014,3753.867940
163588.938696,370.102971,-7105.977043,3600.648841
163588.939016,1110.308913,-6513.812290,2374.896044
163588.939336,2294.638420,-7994.224174,1762.019645
163588.939656,-2886.803174,-7328.038826,-2451.505594
163588.939976,-2738.761985,-11547.212695,-1302.362347
163588.940296,-5033.400406,-12213.398043,-3983.696590
163588.940616,-4515.256246,-12509.480420,-2451.505594
163588.940936,-5921.647536,-11399.171507,-4903.011187
163588.941255,-6143.709319,-11843.295072,-1072.533697
163588.941575,-4737.318029,-7179.997637,-3677.258390
163588.941895,2886.803174,-9252.574275,3753.867940
163588.942215,3404.947333,-6069.688724,2911.162892
163588.942535,2146.597232,-5773.606348,4519.963438
163588.942855,3478.967927,-7105.977043,1149.143247
163588.943175,1998.556043,-9178.553681,1455.581446
163588.943495,-296.082377,-11251.130318,-842.705048
163588.943815,-6735.874072,-12065.356855,-3447.429741
163588.944135,-9474.636058,-11029.068536,-7048.078582
163588.944455,-8290.306550,-11917.315666,-3677.258390
163588.944775,-5847.626942,-10436.903782,-4979.620737
163588.945095,-4885.359217,-9548.656652,-995.924147
163588.945415,-2664.741391,-7920.203579,76.609550
163588.945735,-740.205942,-7105.977043,3217.601092
163588.946055,2442.679609,-6513.812290,4519.963438
163588.946374,296.082377,-5033.400406,4519.963438
163588.946694,-2072.576638,-5403.503377,1225.752797
163588.947014,-2960.823768,-7179.997637,1532.190996
163588.947334,-1998.556043,-11547.212695,1225.752797
163588.947654,-5921.647536,-9548.656652,0.000000
163588.947974,-6883.915261,-11547.212695,-3524.039291
163588.948294,-9474.636058,-11695.253884,-6818.249932
163588.948614,-10436.903782,-11843.295072,-6741.640382
163588.948934,-8808.450710,-12213.398043,-4366.744339
163588.949254,-5995.668130,-10066.800811,-1302.362347
163588.949574,-4811.338623,-9918.759623,1991.848295
163588.949894,-5921.647536,-4219.173869,1225.752797
163588.950214,-1628.453072,-5403.503377,4519.963438
163588.950534,1480.411884,-5995.668130,6435.202183
163588.950854,1776.494261,-5995.668130,5209.449386
163588.951174,-1406.391290,-7550.100608,1685.410096
163588.951494,-6365.771101,-8438.347739,-2911.162892
163588.951813,-8512.368333,-12731.542202,-5822.325785
163588.952133,-9548.656652,-15396.283594,-6511.811733
163588.952453,-4811.338623,-17764.942608,-3140.991542
163588.952773,-5403.503377,-14211.954086,-2528.115143
163588.953093,-5551.544565,-9770.718434,-995.924147
163588.953413,-1258.350101,-7698.141797,-1302.362347
163588.953733,2664.741391,-8216.285956,7124.688131
163588.954053,5329.482782,-3627.009116,6128.763984
163588.954373,4959.379811,-3552.988522,7507.735880
163588.954693,1480.411884,-4515.256246,4060.306139
163588.955013,-2812.782580,-5699.585753,-919.314598
163588.955333,-6291.750507,-10955.047942,-3677.258390
163588.955653,-8290.306550,-13693.809927,-3983.696590
163588.955973,-8734.430116,-15618.345376,-4903.011187
163588.956293,-7179.997637,-15396.283594,-3753.867940
163588.956613,-7179.997637,-11399.171507,-4366.744339
163588.956932,-6513.812290,-10140.821405,-76.609550
163588.957252,-3627.009116,-6661.853478,-1455.581446
163588.957572,-592.164754,-6217.729913,1838.629195
163588.957892,1850.514855,-5033.400406,4060.306139
163588.958212,2368.659014,-2442.679609,2451.505594
163588.958532,962.267725,-3923.091493,1838.629195
163588.958852,888.247130,-5699.585753,0.000000
163588.959172,-3552.988522,-9548.656652,-3677.258390
163588.959492,-4737.318029,-14508.036463,-3447.429741
163588.959812,-3627.009116,-17764.942608,-3140.991542
163588.960132,-5921.647536,-15766.386565,-2911.162892
163588.960452,-4219.173869,-13027.624579,-1225.752797
163588.960772,-2886.803174,-9770.718434,-612.876398
163588.961092,-1702.473667,-7105.977043,229.828649
163588.961412,-592.164754,-3330.926739,995.924147
163588.961732,2294.638420,-6809.894666,5592.497135
163588.962052,-74.020594,-4515.256246,2987.772442
163588.962371,-1776.494261,-6143.709319,2757.943793
163588.962691,-592.164754,-9696.697840,3983.696590
163588.963011,-1258.350101,-11843.295072,2374.896044
163588.963331,-6217.729913,-9992.780217,-3064.381992
163588.963651,-7698.141797,-12657.521608,-4903.011187
163588.963971,-7846.182985,-13545.768739,-5592.497135
163588.964291,-6513.812290,-12879.583391,-2451.505594
163588.964611,-4811.338623,-11621.233289,0.000000
163588.964931,-2886.803174,-9992.780217,1991.848295
163588.965251,-370.102971,-6513.812290,3370.820191
163588.965571,2294.638420,-4737.318029,4213.525239
163588.965891,-814.226536,-2368.659014,1455.581446
163588.966211,-1924.535449,-8142.265362,2374.896044
163588.966531,-5255.462188,-8734.430116,-1532.190996
163588.966850,-5847.626942,-10510.924376,-2145.067394
163588.967170,-7846.182985,-11399.171507,-2987.772442
163588.967490,-9474.636058,-10732.986159,-4903.011187
163588.967810,-6957.935855,-12509.480420,-2451.505594
163588.968130,-4145.153275,-10658.965565,-76.609550
163588.968450,-4663.297435,-6661.853478,0.000000
163588.968769,-4737.318029,-5403.503377,459.657299
163588.969089,-74.020594,-7105.977043,-229.828649
163588.969409,2294.638420,-9474.636058,3600.648841
163588.969729,814.226536,-9326.594869,4903.011187
163588.970049,-2294.638420,-8586.388927,2987.772442
163588.970369,-4885.359217,-9104.533087,0.000000
163588.970688,-5921.647536,-10732.986159,0.000000
163588.971008,-3701.029710,-11325.150913,-3677.258390
163588.971328,-4737.318029,-10140.821405,612.876398
163588.971648,-4145.153275,-9474.636058,536.266849
163588.971968,-4811.338623,-8290.306550,-3140.991542
163588.972288,-4737.318029,-9474.636058,-3140.991542
163588.972607,-4663.297435,-10362.883188,-3294.210641
163588.972927,-4293.194464,-10732.986159,459.657299
163588.973247,-4811.338623,-9992.780217,2451.505594
163588.973567,-6513.812290,-6291.750507,0.000000
163588.973887,-2738.761985,-7772.162391,-919.314598
163588.974207,962.267725,-9474.636058,1762.019645
163588.974526,1702.473667,-8290.306550,2681.334243
163588.974846,1110.308913,-7994.224174,2221.676944
163588.975166,0.000000,-8660.409521,3064.381992
163588.975486,-4737.318029,-7179.997637,-2451.505594
163588.975806,-4071.132681,-8290.306550,-4673.182538
163588.976126,-2886.803174,-9252.574275,-4903.011187
163588.976445,-2368.659014,-11251.130318,-3600.648841
163588.976765,-1258.350101,-11843.295072,-3140.991542
163588.977085,-4071.132681,-13175.665768,306.438199
163588.977405,-3701.029710,-11399.171507,1838.629195
163588.977725,-2072.576638,-9844.739029,2987.772442
163588.978045,-370.102971,-7402.059420,4826.401637
163588.978364,0.000000,-4811.338623,4903.011187
163588.978684,0.000000,-3034.844362,2451.505594
163588.979004,1184.329507,-6809.894666,3447.429741
163588.979324,-814.226536,-7994.224174,842.705048
163588.979644,-4737.318029,-9548.656652,-2451.505594
163588.979964,-3627.009116,-12435.459826,-3753.867940
163588.980283,-8734.430116,-13101.645173,-5898.935335
163588.980603,-9178.553681,-13397.727550,-4519.963438
163588.980923,-7920.203579,-11547.212695,-4749.792088
163588.981243,-5329.482782,-8808.450710,-3064.381992
163588.981563,-1702.473667,-6883.915261,-1225.752797
163588.981883,0.000000,-5403.503377,766.095498
163588.982202,-888.247130,-5995.668130,383.047749
163588.982522,-3552.988522,-8068.244768,2757.943793
163588.982842,-1998.556043,-8364.327145,1455.581446
163588.983162,-1258.350101,-11547.212695,4213.525239
163588.983482,-2516.700203,-10066.800811,3677.258390
163588.983802,-2442.679609,-9474.636058,2681.334243
163588.984121,-3478.967927,-7105.977043,-766.095498
163588.984441,-5107.421000,-8882.471304,-2528.115143
163588.984761,-8364.327145,-7698.141797,-5822.325785
163588.985081,-8956.491898,-11843.295072,-5592.497135
163588.985401,-7772.162391,-11103.089130,-5898.935335
163588.985721,-6365.771101,-10732.986159,-2451.505594
163588.986040,-3627.009116,-10066.800811,-2528.115143
163588.986360,0.000000,-9992.780217,4443.353888
163588.986680,962.267725,-8512.368333,4903.011187
163588.987000,1554.432478,-7994.224174,5362.668486
163588.987320,222.061783,-9474.636058,4826.401637
163588.987640,-1924.535449,-9474.636058,4213.525239
163588.987959,-7105.977043,-8364.327145,0.000000
163588.988279,-6587.832884,-11547.212695,-2834.553343
163588.988599,-9548.656652,-10807.006753,-3830.477490
163588.988919,-11251.130318,-9548.656652,-7354.516781
163588.989239,-6291.750507,-10362.883188,-5286.058936
163588.989559,-3552.988522,-9622.677246,-1378.971896
163588.989878,-1184.329507,-9252.574275,1455.581446
163588.990198,1184.329507,-7328.038826,3600.648841
163588.990518,3256.906145,-8956.491898,5209.449386
163588.990838,2886.803174,-7254.018232,4060.306139
163588.991158,0.000000,-7179.997637,3370.820191
163588.991478,0.000000,-10066.800811,3064.381992
163588.991797,-74.020594,-11843.295072,1762.019645
163588.992117,-2738.761985,-8660.409521,0.000000
163588.992437,1110.308913,-11251.130318,766.095498
163588.992757,1628.453072,-10140.821405,536.266849
163588.993077,2368.659014,-10510.924376,1762.019645
163588.993397,2516.700203,-9696.697840,1762.019645
163588.993716,1924.535449,-9474.636058,3600.648841
163588.994036,2590.720797,-7698.141797,2834.553343
163588.994356,2442.679609,-7994.224174,4213.525239
163588.994676,592.164754,-7772.162391,4903.011187
163588.994996,2368.659014,-9252.574275,6128.763984
163588.995316,0.000000,-7772.162391,3064.381992
163588.995635,-814.226536,-9918.759623,3907.087040
163588.995955,-2368.659014,-10362.883188,2757.943793
163588.996275,-3182.885551,-10584.944971,1302.362347
163588.996595,-666.185348,-11843.295072,3600.648841
163588.996915,-74.020594,-11843.295072,4213.525239
163588.997235,1924.535449,-11325.150913,8273.831378
163588.997554,4663.297435,-9474.636058,8197.221829
163588.997874,2516.700203,-6291.750507,7277.907231
163588.998194,0.000000,-4811.338623,4903.011187
163588.998514,1702.473667,-5033.400406,4060.306139
163588.998834,1332.370696,-6661.853478,4290.134789
163588.999154,370.102971,-9992.780217,4979.620737
163588.999473,-296.082377,-12213.398043,5515.887586
163588.999793,-74.020594,-16580.613101,8580.269578
163589.000113,-4145.153275,-13249.686362,7354.516781
163589.000433,-3552.988522,-11917.315666,8580.269578
163589.000753,-3256.906145,-8956.491898,7354.516781
163589.001073,-2368.659014,-4811.338623,8580.269578
163589.001392,-3552.988522,-74.020594,4903.011187
163589.001712,370.102971,-2368.659014,5975.544884
163589.002032,370.102971,-5181.441594,5745.716235
163589.002352,-592.164754,-8734.430116,6358.592633
163589.002672,-2442.679609,-11251.130318,6052.154434
163589.002992,-4589.276840,-12435.459826,5439.278036
163589.003311,-7105.977043,-12139.377449,2451.505594
163589.003631,-6809.894666,-11325.150913,612.876398
163589.003951,-4737.318029,-10140.821405,3677.258390
163589.004271,296.082377,-9252.574275,6128.763984
163589.004591,0.000000,-7920.203579,4290.134789
163589.004911,1702.473667,-9474.636058,6052.154434
163589.005230,-814.226536,-8956.491898,4596.572988
163589.005550,-3478.967927,-8142.265362,2374.896044
163589.005870,-1258.350101,-9474.636058,2374.896044
163589.006190,518.144159,-9474.636058,3140.991542
163589.006510,2886.803174,-10658.965565,5745.716235
163589.006830,3478.967927,-8142.265362,3294.210641
163589.007149,888.247130,-9548.656652,1608.800546
163589.007469,-2368.659014,-9548.656652,612.876398
163589.007789,-2590.720797,-11621.233289,-1225.752797
163589.008109,-3108.864956,-12361.439231,0.000000
163589.008429,-2294.638420,-11769.274478,306.438199
163589.008749,-814.226536,-10510.924376,1149.143247
163589.009068,3478.967927,-10658.965565,3294.210641
163589.009388,2368.659014,-7179.997637,3983.696590
163589.009708,4071.132681,-6809.894666,2987.772442
163589.010028,592.164754,-3923.091493,-1072.533697
163589.010348,814.226536,-6069.688724,-3370.820191
163589.010668,3478.967927,-9474.636058,-689.485948
163589.010987,4515.256246,-10732.986159,2374.896044
163589.011307,1628.453072,-9326.594869,1149.143247
163589.011627,-3330.926739,-9992.780217,-3447.429741
163589.011947,-4219.173869,-13027.624579,-4060.306139
163589.012267,-4811.338623,-13915.871710,-4443.353888
163589.012587,-2590.720797,-11843.295072,-689.485948
163589.012906,-2072.576638,-7328.038826,-1149.143247
163589.013226,0.000000,-7179.997637,1532.190996
163589.013546,5847.626942,-7105.977043,1762.019645
163589.013866,4885.359217,-6735.874072,2987.772442
163589.014186,2294.638420,-7031.956449,536.266849
163589.014506,888.247130,-8808.450710,0.000000
163589.014825,222.061783,-11177.109724,-1302.362347
163589.015145,-2368.659014,-9548.656652,0.000000
163589.015465,-1554.432478,-11843.295072,-383.047749
163589.015785,-1406.391290,-11769.274478,536.266849
163589.016105,-814.226536,-10584.944971,766.095498
163589.016425,-1628.453072,-8290.306550,1149.143247
163589.016744,-666.185348,-8882.471304,-842.705048
163589.017064,-2368.659014,-9548.656652,1838.629195
163589.017384,2294.638420,-9178.553681,4366.744339
163589.017704,2590.720797,-9474.636058,6052.154434
163589.018024,1184.329507,-8956.491898,5515.887586
163589.018344,-2960.823768,-6587.832884,612.876398
163589.018663,-2220.617826,-10066.800811,536.266849
163589.018983,-3182.885551,-12287.418637,766.095498
163589.019303,-3552.988522,-12435.459826,766.095498
163589.019623,-2442.679609,-11843.295072,1685.410096
163589.019943,-2368.659014,-9548.656652,2681.334243
163589.020263,-74.020594,-9474.636058,2987.772442
163589.020582,-74.020594,-8956.491898,6588.421283
163589.020902,-74.020594,-7698.141797,5745.716235
163589.021222,-2368.659014,-5995.668130,4903.011187
163589.021542,666.185348,-5995.668130,3983.696590
163589.021862,4367.215058,-8290.306550,6818.249932
163589.022182,4959.379811,-8882.471304,7507.735880
163589.022501,2294.638420,-10510.924376,5592.497135
163589.022821,-370.102971,-12435.459826,2681.334243
163589.023141,-3552.988522,-11621.233289,1838.629195
163589.023461,-5921.647536,-10140.821405,1532.190996
163589.023781,-1998.556043,-13027.624579,4213.525239
163589.024101,-1850.514855,-9770.718434,3600.648841
163589.024420,-1776.494261,-7179.997637,5515.887586
163589.024740,1110.308913,-4737.318029,5669.106685
163589.025060,666.185348,-4737.318029,5822.325785
163589.025380,1258.350101,-6439.791695,6435.202183
163589.025700,2738.761985,-7105.977043,5439.278036
163589.026020,3478.967927,-8290.306550,6665.030833
163589.026339,2886.803174,-11843.295072,5439.278036
163589.026659,-2368.659014,-11029.068536,4366.744339
163589.026979,-3256.906145,-12879.583391,2987.772442
163589.027299,-2368.659014,-13397.727550,4903.011187
163589.027619,-4737.318029,-9548.656652,1225.752797
163589.027939,-4811.338623,-9474.636058,1302.362347
163589.028258,-3997.112087,-7179.997637,842.705048
163589.028578,-1110.308913,-5773.606348,1685.410096
163589.028898,3182.885551,-7698.141797,3294.210641
163589.029218,2960.823768,-7179.997637,5286.058936
163589.029538,2886.803174,-8660.409521,5439.278036
163589.029858,1776.494261,-9326.594869,4213.525239
163589.030177,0.000000,-10732.986159,6128.763984
163589.030497,592.164754,-12509.480420,8886.707777
163589.030817,-1406.391290,-9326.594869,4136.915689
163589.031137,-2738.761985,-9474.636058,3983.696590
163589.031457,-2812.782580,-8512.368333,2451.505594
163589.031777,-3034.844362,-7476.080014,0.000000
163589.032096,-2738.761985,-5995.668130,0.000000
163589.032416,-2368.659014,-3923.091493,0.000000
163589.032736,-1184.329507,-7772.162391,306.438199
163589.033056,2294.638420,-11843.295072,3294.210641
163589.033376,2886.803174,-15396.283594,6665.030833
163589.033696,1184.329507,-13397.727550,9193.145976
163589.034015,-740.205942,-9844.739029,4366.744339
163589.034335,-3923.091493,-9104.533087,2681.334243
163589.034655,-3034.844362,-6587.832884,76.609550
163589.034975,296.082377,-5477.523971,0.000000
163589.035295,2294.638420,-6365.771101,-76.609550
163589.035615,-74.020594,-8882.471304,-1608.800546
163589.035934,-2960.823768,-10732.986159,0.000000
163589.036254,-1776.494261,-12287.418637,0.000000
163589.036574,-74.020594,-15988.448347,2374.896044
163589.036894,-3552.988522,-9548.656652,0.000000
163589.037214,740.205942,-8882.471304,2528.115143
163589.037534,1998.556043,-6513.812290,3524.039291
163589.037853,3552.988522,-7328.038826,3217.601092
163589.038173,3182.885551,-7105.977043,842.705048
163589.038493,1924.535449,-11843.295072,2681.334243
163589.038813,1110.308913,-11251.130318,2221.676944
163589.039133,-1554.432478,-10362.883188,1149.143247
163589.039453,-3775.050304,-9622.677246,-1302.362347
163589.039772,-2368.659014,-13027.624579,2068.457845
163589.040092,-592.164754,-9104.533087,842.705048
163589.040412,1776.494261,-8512.368333,2374.896044
163589.040732,814.226536,-7920.203579,1149.143247
163589.041052,-3552.988522,-9548.656652,0.000000
163589.041372,-2960.823768,-7179.997637,0.000000
163589.041691,-888.247130,-9548.656652,1378.971896
163589.042011,-74.020594,-9474.636058,2757.943793
163589.042331,-1258.350101,-9474.636058,1762.019645
163589.042651,-74.020594,-7698.141797,2987.772442
163589.042971,2368.659014,-8808.450710,3217.601092
163589.043291,370.102971,-7179.997637,612.876398
163589.043610,-592.164754,-11399.171507,1915.238745
163589.043930,888.247130,-10881.027347,1608.800546
163589.044250,0.000000,-10732.986159,0.000000
163589.044570,-1480.411884,-10732.986159,229.828649
163589.044890,-4737.318029,-7772.162391,306.438199
163589.045210,1628.453072,-7920.203579,842.705048
163589.045529,1998.556043,-7105.977043,2834.553343
163589.045849,2368.659014,-7179.997637,3064.381992
163589.046169,1110.308913,-10658.965565,4979.620737
163589.046489,2516.700203,-11103.089130,4903.011187
163589.046809,-666.185348,-10658.965565,5592.497135
163589.047129,-592.164754,-10732.986159,3064.381992
163589.047448,-814.226536,-9474.636058,3677.258390
163589.047768,0.000000,-7772.162391,3677.258390
163589.048088,2368.659014,-8512.368333,5286.058936
163589.048408,3478.967927,-12731.542202,5439.278036
163589.048728,-2072.576638,-10214.842000,3983.696590
163589.049048,-3775.050304,-10658.965565,229.828649
163589.049367,-7328.038826,-12065.356855,1915.238745
163589.049687,-6217.729913,-6587.832884,306.438199
163589.050007,-4071.132681,-4737.318029,1225.752797
163589.050327,3256.906145,-8290.306550,5745.716235
163589.050647,5699.585753,-9252.574275,6588.421283
163589.050967,5107.421000,-10658.965565,9116.536426
163589.051286,1110.308913,-9474.636058,7277.907231
163589.051606,-3552.988522,-7920.203579,4903.011187
163589.051926,-2442.679609,-8290.306550,-76.609550
163589.052246,-2368.659014,-9400.615463,766.095498
163589.052566,2072.576638,-10140.821405,2374.896044
163589.052886,2368.659014,-10807.006753,5669.106685
163589.053205,-1332.370696,-10732.986159,4826.401637
163589.053525,-5921.647536,-8364.327145,1225.752797
163589.053845,-4885.359217,-8734.430116,-1378.971896
163589.054165,-2072.576638,-7994.224174,306.438199
163589.054485,3034.844362,-7179.997637,4443.353888
163589.054805,6291.750507,-5921.647536,5745.716235
163589.055124,6439.791695,-7920.203579,7201.297681
163589.055444,2294.638420,-8142.265362,3600.648841
163589.055764,-2368.659014,-9548.656652,-1455.581446
163589.056084,-6513.812290,-11325.150913,-2451.505594
163589.056404,-2960.823768,-13693.809927,-612.876398
163589.056724,-4737.318029,-11917.315666,-1838.629195
163589.057043,-2294.638420,-9844.739029,-1149.143247
163589.057363,-2220.617826,-7105.977043,-1838.629195
163589.057683,0.000000,-7328.038826,-1685.410096
163589.058003,2664.741391,-5477.523971,-1608.800546
163589.058323,3108.864956,-8068.244768,-459.657299
163589.058643,2368.659014,-8364.327145,1225.752797
163589.058962,3923.091493,-9474.636058,1762.019645
163589.059282,1628.453072,-10658.965565,-76.609550
163589.059602,0.000000,-9548.656652,306.438199
163589.059922,-962.267725,-7846.182985,-3447.429741
163589.060242,-1184.329507,-10510.924376,-4673.182538
163589.060562,-592.164754,-11177.109724,-4749.792088
163589.060881,-444.123565,-12213.398043,-4903.011187
163589.061201,-1258.350101,-10955.047942,-4979.620737
163589.061521,-1628.453072,-10066.800811,-3140.991542
163589.061841,-1258.350101,-6957.935855,-4903.011187
163589.062161,1332.370696,-6143.709319,-3294.210641
163589.062481,3478.967927,-9474.636058,-689.485948
163589.062800,1184.329507,-9548.656652,0.000000
163589.063120,1628.453072,-10955.047942,-612.876398
163589.063440,-2146.597232,-13397.727550,-2374.896044
163589.063760,-4441.235652,-12287.418637,-2451.505594
163589.064080,-5403.503377,-6809.894666,-4673.182538
163589.064400,-2442.679609,-7105.977043,-4366.744339
163589.064719,-666.185348,-7105.977043,-6205.373534
163589.065039,2146.597232,-7476.080014,-3600.648841
163589.065359,2294.638420,-10362.883188,-1915.238745
163589.065679,1184.329507,-12953.603985,2374.896044
163589.065999,-4737.318029,-7772.162391,-4903.011187
163589.066319,-3701.029710,-9474.636058,-4979.620737
163589.066638,-666.185348,-7105.977043,-4903.011187
163589.066958,4071.132681,-7550.100608,-2221.676944
163589.067278,5847.626942,-10658.965565,612.876398
163589.067598,3108.864956,-9844.739029,612.876398
163589.067917,-74.020594,-13323.706956,-919.314598
163589.068237,-1480.411884,-11843.295072,-1915.238745
163589.068557,-370.102971,-8586.388927,-3753.867940
163589.068877,1184.329507,-8364.327145,612.876398
163589.069197,4663.297435,-5329.482782,-1302.362347
163589.069516,3182.885551,-9252.574275,-383.047749
163589.069836,2368.659014,-9844.739029,-459.657299
163589.070156,222.061783,-10510.924376,-1838.629195
163589.070476,-2960.823768,-13693.809927,0.000000
163589.070795,-1776.494261,-12139.377449,-995.924147
163589.071115,-666.185348,-13027.624579,-76.609550
163589.071435,-962.267725,-8216.285956,-306.438199
163589.071755,0.000000,-5477.523971,-995.924147
163589.072075,2886.803174,-10658.965565,2987.772442
163589.072394,0.000000,-7772.162391,766.095498
163589.072714,-1480.411884,-8808.450710,0.000000
163589.073034,-2960.823768,-9252.574275,-995.924147
163589.073354,-4737.318029,-8364.327145,0.000000
163589.073673,-4589.276840,-9548.656652,0.000000
163589.073993,-3256.906145,-8364.327145,0.000000
163589.074313,0.000000,-8364.327145,1838.629195
163589.074633,-666.185348,-9252.574275,0.000000
163589.074953,2294.638420,-10658.965565,2374.896044
163589.075272,-370.102971,-9104.533087,1608.800546
163589.075592,-962.267725,-9252.574275,2451.505594
163589.075912,-666.185348,-9400.615463,3217.601092
163589.076232,0.000000,-7624.121203,3294.210641
163589.076552,0.000000,-6587.832884,2298.286494
163589.076871,2294.638420,-8290.306550,2374.896044
163589.077191,0.000000,-8364.327145,612.876398
163589.077511,0.000000,-11399.171507,3064.381992
163589.077831,-74.020594,-12435.459826,2987.772442
163589.078150,-74.020594,-12435.459826,3600.648841
163589.078470,-592.164754,-9696.697840,2451.505594
163589.078790,888.247130,-8956.491898,3294.210641
163589.079110,1406.391290,-6883.915261,4060.306139
163589.079430,1776.494261,-5255.462188,4903.011187
163589.079749,1924.535449,-7920.203579,3677.258390
163589.080069,2294.638420,-11251.130318,4060.306139
163589.080389,222.061783,-10066.800811,3600.648841
163589.080709,-3552.988522,-8364.327145,1532.190996
163589.081028,-666.185348,-9474.636058,-76.609550
163589.081348,-74.020594,-11843.295072,-76.609550
163589.081668,296.082377,-11325.150913,153.219100
163589.081988,0.000000,-10362.883188,1608.800546
163589.082308,-814.226536,-11251.130318,842.705048
163589.082627,-2368.659014,-9548.656652,1225.752797
163589.082947,-2072.576638,-7772.162391,-1072.533697
163589.083267,0.000000,-6291.750507,0.000000
163589.083587,3108.864956,-8734.430116,2145.067394
163589.083906,1554.432478,-7031.956449,1149.143247
163589.084226,-74.020594,-9474.636058,-1302.362347
163589.084546,-1850.514855,-11843.295072,-306.438199
163589.084866,-2072.576638,-12213.398043,-2834.553343
163589.085186,-1776.494261,-13101.645173,-76.609550
163589.085505,-1998.556043,-9548.656652,-383.047749
163589.085825,-4441.235652,-5995.668130,-3677.258390
163589.086145,-1258.350101,-8290.306550,-2221.676944
163589.086465,0.000000,-6587.832884,-2298.286494
163589.086785,444.123565,-7772.162391,612.876398
163589.087104,592.164754,-7994.224174,2374.896044
163589.087424,0.000000,-7846.182985,-612.876398
163589.087744,-1702.473667,-7994.224174,-2145.067394
163589.088064,-2294.638420,-6809.894666,-2374.896044
163589.088383,-1258.350101,-10807.006753,-2145.067394
163589.088703,0.000000,-8364.327145,-3677.258390
163589.089023,-1776.494261,-8438.347739,-2451.505594
163589.089343,-1184.329507,-10732.986159,-1225.752797
163589.089663,0.000000,-7772.162391,-3064.381992
163589.089982,1702.473667,-11547.212695,-2604.724693
163589.090302,0.000000,-9548.656652,0.000000
163589.090622,74.020594,-7179.997637,-2451.505594
163589.090942,296.082377,-9326.594869,-1762.019645
163589.091261,2294.638420,-9252.574275,-1302.362347
163589.091581,3034.844362,-9104.533087,-2528.115143
163589.091901,2664.741391,-10436.903782,-153.219100
163589.092221,888.247130,-9844.739029,-1072.533697
163589.092541,592.164754,-11917.315666,-1915.238745
163589.092860,370.102971,-11843.295072,-1762.019645
163589.093180,222.061783,-9548.656652,-2451.505594
163589.093500,1406.391290,-8290.306550,-1915.238745
163589.093820,2294.638420,-10658.965565,-1302.362347
163589.094140,-1110.308913,-8364.327145,-2834.553343
163589.094459,0.000000,-9252.574275,-4290.134789
163589.094779,1110.308913,-11843.295072,-76.609550
163589.095099,-2368.659014,-9844.739029,0.000000
163589.095419,-666.185348,-10807.006753,-76.609550
163589.095738,-1850.514855,-7550.100608,-1685.410096
163589.096058,-3256.906145,-7476.080014,-2528.115143
163589.096378,-888.247130,-10362.883188,-2068.457845
163589.096698,-666.185348,-7698.141797,-3064.381992
163589.097018,-74.020594,-11843.295072,995.924147
163589.097337,-74.020594,-11547.212695,3447.429741
163589.097657,-666.185348,-8586.388927,-2068.457845
163589.097977,-2368.659014,-9844.739029,1072.533697
163589.098297,-3256.906145,-6291.750507,-3217.601092
163589.098616,-740.205942,-9178.553681,-1072.533697
163589.098936,0.000000,-9030.512492,-536.266849
163589.099256,296.082377,-10140.821405,383.047749
163589.099576,74.020594,-8068.244768,-1838.629195
163589.099896,0.000000,-6883.915261,-1072.533697
163589.100215,-2368.659014,-8364.327145,0.000000
163589.100535,1850.514855,-11399.171507,1149.143247
163589.100855,1554.432478,-9474.636058,1608.800546
163589.101175,740.205942,-11917.315666,4290.134789
163589.101494,1554.432478,-8512.368333,1378.971896
163589.101814,888.247130,-8216.285956,919.314598
163589.102134,962.267725,-8586.388927,229.828649
163589.102454,-1776.494261,-8364.327145,0.000000
163589.102774,-1850.514855,-7476.080014,-1302.362347
163589.103093,-74.020594,-10658.965565,-76.609550
163589.103413,-2220.617826,-8956.491898,0.000000
163589.103733,-1776.494261,-5995.668130,-2681.334243
163589.104053,1110.308913,-11251.130318,2987.772442
163589.104373,0.000000,-8956.491898,1225.752797
163589.104692,1554.432478,-11399.171507,1455.581446
163589.105012,-1036.288319,-10732.986159,2757.943793
163589.105332,-2368.659014,-9104.533087,995.924147
163589.105652,-74.020594,-8882.471304,536.266849
163589.105971,1036.288319,-8660.409521,1302.362347
163589.106291,1998.556043,-9918.759623,1149.143247
163589.106611,0.000000,-7994.224174,1149.143247
163589.106931,-2368.659014,-7179.997637,306.438199
163589.107251,-74.020594,-13027.624579,3600.648841
163589.107570,0.000000,-9548.656652,919.314598
163589.107890,-592.164754,-9548.656652,842.705048
163589.108210,-1036.288319,-10214.842000,2145.067394
163589.108530,-962.267725,-7920.203579,612.876398
163589.108849,-1628.453072,-8364.327145,0.000000
163589.109169,-296.082377,-10214.842000,2374.896044
163589.109489,0.000000,-9548.656652,3677.258390
163589.109809,1110.308913,-9474.636058,2987.772442
163589.110129,-962.267725,-7105.977043,1762.019645
163589.110448,-888.247130,-8660.409521,689.485948
163589.110768,-1554.432478,-8586.388927,-1225.752797
163589.111088,-666.185348,-9104.533087,-1072.533697
163589.111408,-370.102971,-10510.924376,76.609550
163589.111728,-2368.659014,-9548.656652,0.000000
163589.112047,-3256.906145,-8956.491898,-2374.896044
163589.112367,-4737.318029,-9548.656652,-3677.258390
163589.112687,-1776.494261,-7772.162391,-919.314598
163589.113007,1702.473667,-7402.059420,-612.876398
163589.113326,4663.297435,-11251.130318,2374.896044
163589.113646,2960.823768,-8956.491898,153.219100
163589.113966,2368.659014,-9622.677246,-459.657299
163589.114286,222.061783,-9844.739029,-995.924147
163589.114606,-2072.576638,-9844.739029,-3294.210641
163589.114925,-3330.926739,-9548.656652,-4366.744339
163589.115245,-74.020594,-10066.800811,-1762.019645
163589.115565,814.226536,-9918.759623,-1915.238745
163589.115885,1332.370696,-8364.327145,-2757.943793
163589.116204,0.000000,-7179.997637,0.000000
163589.116524,-74.020594,-9474.636058,-76.609550
163589.116844,0.000000,-9030.512492,-2451.505594
163589.117164,814.226536,-10140.821405,-1378.971896
163589.117484,222.061783,-10807.006753,1225.752797
163589.117803,0.000000,-8364.327145,1532.190996
163589.118123,-1776.494261,-7179.997637,-1838.629195
163589.118443,-888.247130,-8364.327145,-2528.115143
163589.118763,-814.226536,-8956.491898,-919.314598
163589.119082,-74.020594,-9178.553681,-2528.115143
163589.119402,-74.020594,-10066.800811,-2528.115143
163589.119722,-74.020594,-11251.130318,-689.485948
163589.120042,-1184.329507,-10140.821405,-2298.286494
163589.120362,-444.123565,-9474.636058,0.000000
163589.120681,0.000000,-6661.853478,-383.047749
163589.121001,0.000000,-5995.668130,0.000000
163589.121321,0.000000,-7179.997637,-919.314598
163589.121641,0.000000,-7772.162391,-1838.629195
163589.121961,1184.329507,-11325.150913,1378.971896
163589.122280,814.226536,-11103.089130,1915.238745
163589.122600,-74.020594,-10658.965565,-2528.115143
163589.122920,-1184.329507,-9622.677246,-1378.971896
163589.123240,0.000000,-8438.347739,-2145.067394
163589.123559,1258.350101,-10436.903782,0.000000
163589.123879,1776.494261,-9474.636058,2987.772442
163589.124199,0.000000,-8364.327145,0.000000
163589.124519,-74.020594,-11843.295072,-76.609550
163589.124839,-2368.659014,-9548.656652,306.438199
163589.125158,-1036.288319,-10658.965565,2374.896044
163589.125478,-74.020594,-11843.295072,3600.648841
163589.125798,0.000000,-7772.162391,2145.067394
163589.126118,-1036.288319,-7105.977043,-153.219100
163589.126437,222.061783,-8882.471304,-153.219100
163589.126757,0.000000,-9770.718434,-1225.752797
163589.127077,-1850.514855,-10732.986159,0.000000
163589.127397,-2368.659014,-10288.862594,536.266849
163589.127717,-2664.741391,-9696.697840,-766.095498
163589.128036,-962.267725,-11843.295072,-76.609550
163589.128356,-1628.453072,-7179.997637,-2145.067394
163589.128676,0.000000,-7772.162391,1225.752797
163589.128996,1110.308913,-8142.265362,2145.067394
163589.129315,666.185348,-7920.203579,306.438199
163589.129635,-740.205942,-10140.821405,-229.828649
163589.129955,-962.267725,-8438.347739,459.657299
163589.130275,2294.638420,-9474.636058,2374.896044
163589.130595,296.082377,-6809.894666,842.705048
163589.130914,0.000000,-6957.935855,-459.657299
163589.131234,-666.185348,-8364.327145,-1991.848295
163589.131554,-1184.329507,-7179.997637,0.000000
163589.131874,0.000000,-7179.997637,-1838.629195
163589.132194,0.000000,-11917.315666,1225.752797
163589.132513,518.144159,-10955.047942,2221.676944
163589.132833,-666.185348,-11251.130318,1991.848295
163589.133153,-666.185348,-7402.059420,-383.047749
163589.133473,3330.926739,-7105.977043,-76.609550
163589.133792,2738.761985,-8512.368333,1455.581446
163589.134112,2442.679609,-9474.636058,2374.896044
163589.134432,-222.061783,-9178.553681,306.438199
163589.134752,-2146.597232,-11029.068536,-689.485948
163589.135072,-2960.823768,-9400.615463,-2451.505594
163589.135391,-3552.988522,-9548.656652,-3524.039291
163589.135711,-2368.659014,-10140.821405,0.000000
163589.136031,1406.391290,-10510.924376,-76.609550
163589.136351,-74.020594,-10658.965565,-1302.362347
163589.136670,-518.144159,-9400.615463,0.000000
163589.136990,-1480.411884,-8438.347739,-459.657299
163589.137310,-370.102971,-9178.553681,-306.438199
163589.137630,962.267725,-8734.430116,1149.143247
163589.137950,2072.576638,-8956.491898,2145.067394
163589.138269,1776.494261,-10140.821405,1225.752797
163589.138589,1924.535449,-10658.965565,2068.457845
163589.138909,-2442.679609,-8660.409521,-1225.752797
163589.139229,-1184.329507,-8956.491898,-1685.410096
163589.139549,-74.020594,-9474.636058,-1915.238745
163589.139868,0.000000,-11325.150913,536.266849
163589.140188,518.144159,-8438.347739,2374.896044
163589.140508,-370.102971,-7179.997637,689.485948
163589.140828,-1184.329507,-7772.162391,1225.752797
163589.141147,-1776.494261,-6883.915261,-1915.238745
163589.141467,0.000000,-7476.080014,0.000000
163589.141787,1406.391290,-9844.739029,2068.457845
163589.142107,-74.020594,-10658.965565,-76.609550
163589.142427,-1850.514855,-10510.924376,-3447.429741
163589.142746,-740.205942,-12731.542202,-1915.238745
163589.143066,-3404.947333,-10140.821405,-3600.648841
163589.143386,-2294.638420,-10881.027347,-1838.629195
163589.143706,-1036.288319,-8808.450710,-2834.553343
163589.144025,0.000000,-9844.739029,-1302.362347
163589.144345,1998.556043,-9474.636058,-689.485948
163589.144665,0.000000,-6587.832884,-995.924147
163589.144985,0.000000,-8364.327145,0.000000
163589.145305,1702.473667,-9474.636058,-689.485948
163589.145624,1110.308913,-8290.306550,-4673.182538
163589.145944,1406.391290,-11029.068536,-383.047749
163589.146264,888.247130,-9400.615463,-995.924147
163589.146584,370.102971,-10140.821405,-1608.800546
163589.146903,-74.020594,-11843.295072,-689.485948
163589.147223,-1406.391290,-10658.965565,-919.314598
163589.147543,-1258.350101,-9400.615463,-2451.505594
163589.147863,592.164754,-9252.574275,612.876398
163589.148183,2294.638420,-8882.471304,536.266849
163589.148502,0.000000,-5995.668130,0.000000
163589.148822,1702.473667,-6513.812290,-76.609550
163589.149142,-666.185348,-6291.750507,-612.876398
163589.149462,-666.185348,-8734.430116,-612.876398
163589.149782,-1036.288319,-9030.512492,-1991.848295
163589.150101,-296.082377,-13101.645173,-76.609550
163589.150421,-2072.576638,-10732.986159,-1838.629195
163589.150741,-2960.823768,-9548.656652,0.000000
163589.151061,-2220.617826,-10140.821405,-766.095498
163589.151380,-1036.288319,-10140.821405,919.314598
163589.151700,-2294.638420,-4811.338623,-4290.134789
163589.152020,2442.679609,-8586.388927,1455.581446
163589.152340,2886.803174,-8142.265362,1838.629195
163589.152660,2368.659014,-10214.842000,1532.190996
163589.152979,74.020594,-10436.903782,1149.143247
163589.153299,-3256.906145,-9844.739029,229.828649
163589.153619,-666.185348,-10658.965565,-995.924147
163589.153939,-1480.411884,-7772.162391,-919.314598
163589.154258,-2960.823768,-8364.327145,0.000000
163589.154578,592.164754,-13101.645173,2451.505594
163589.154898,222.061783,-7031.956449,0.000000
163589.155218,-1332.370696,-9252.574275,1378.971896
163589.155538,-2368.659014,-7846.182985,919.314598
163589.155857,-2738.761985,-6217.729913,-2834.553343
163589.156177,1110.308913,-11251.130318,2221.676944
163589.156497,2664.741391,-10214.842000,3524.039291
163589.156817,1998.556043,-9770.718434,3294.210641
163589.157136,-1258.350101,-10362.883188,995.924147
163589.157456,-5033.400406,-8438.347739,-2757.943793
163589.157776,-5921.647536,-8364.327145,-3983.696590
163589.158096,-2072.576638,-8660.409521,-1685.410096
163589.158416,222.061783,-9770.718434,536.266849
163589.158735,74.020594,-11251.130318,1149.143247
163589.159055,-1776.494261,-7772.162391,0.000000
163589.159375,-74.020594,-8882.471304,-2221.676944
163589.159695,0.000000,-8068.244768,0.000000
163589.160015,0.000000,-5995.668130,0.000000
163589.160334,1998.556043,-10288.862594,536.266849
163589.160654,3478.967927,-10288.862594,1149.143247
163589.160974,1184.329507,-7476.080014,-766.095498
163589.161294,740.205942,-10140.821405,1149.143247
163589.161613,-74.020594,-9548.656652,-76.609550
163589.161933,-74.020594,-9696.697840,-2528.115143
163589.162253,-148.041188,-10214.842000,-76.609550
163589.162573,0.000000,-7179.997637,0.000000
163589.162893,1998.556043,-8142.265362,-689.485948
163589.163212,0.000000,-7179.997637,612.876398
163589.163532,-148.041188,-10066.800811,2374.896044
163589.163852,-74.020594,-9474.636058,-2528.115143
163589.164172,-2886.803174,-5995.668130,-3294.210641
163589.164491,-74.020594,-9622.677246,0.000000
163589.164811,-1110.308913,-7179.997637,-2451.505594
163589.165131,-74.020594,-8956.491898,842.705048
163589.165451,-1258.350101,-9474.636058,-1302.362347
163589.165771,-2442.679609,-11029.068536,-2757.943793
163589.166090,-3404.947333,-7179.997637,-3370.820191
163589.166410,-2368.659014,-9844.739029,-612.876398
163589.166730,-74.020594,-11251.130318,2374.896044
163589.167050,-962.267725,-6809.894666,-1302.362347
163589.167370,-1184.329507,-9252.574275,0.000000
163589.167689,2294.638420,-8882.471304,-76.609550
163589.168009,-1776.494261,-5995.668130,-2451.505594
163589.168329,-74.020594,-9400.615463,536.266849
163589.168649,2368.659014,-8512.368333,-306.438199
163589.168969,0.000000,-11473.192101,1149.143247
163589.169289,592.164754,-10140.821405,3064.381992
163589.169609,-74.020594,-11251.130318,-76.609550
163589.169928,-1776.494261,-10955.047942,-76.609550
163589.170248,-74.020594,-9474.636058,-76.609550
163589.170568,1110.308913,-8290.306550,229.828649
163589.170888,2294.638420,-7476.080014,2298.286494
163589.171208,1110.308913,-6809.894666,0.000000
163589.171528,592.164754,-9918.759623,-229.828649
163589.171848,0.000000,-9548.656652,1532.190996
163589.172168,-2146.597232,-9252.574275,306.438199
163589.172488,-1258.350101,-10066.800811,-76.609550
163589.172808,-74.020594,-9474.636058,-1915.238745
163589.173127,-1776.494261,-9548.656652,-2451.505594
163589.173447,1480.411884,-13027.624579,2987.772442
163589.173767,-1036.288319,-9992.780217,-766.095498
163589.174087,-740.205942,-11029.068536,-995.924147
163589.174407,-1332.370696,-9030.512492,-1608.800546
163589.174727,-1480.411884,-8364.327145,-3677.258390
163589.175047,-74.020594,-7402.059420,-2834.553343
163589.175367,1628.453072,-8734.430116,-306.438199
163589.175687,888.247130,-10510.924376,-766.095498
163589.176006,-518.144159,-11029.068536,-689.485948
163589.176326,-1554.432478,-10584.944971,-1225.752797
163589.176646,-2960.823768,-8364.327145,-3370.820191
163589.176966,0.000000,-9696.697840,-919.314598
163589.177286,3182.885551,-9474.636058,-76.609550
163589.177606,2886.803174,-11251.130318,-76.609550
163589.177926,-2220.617826,-6587.832884,0.000000
163589.178246,-74.020594,-6809.894666,-995.924147
163589.178566,-518.144159,-8438.347739,1072.533697
163589.178886,-1332.370696,-5921.647536,-383.047749
163589.179205,0.000000,-7550.100608,0.000000
163589.179525,814.226536,-8882.471304,2068.457845
163589.179845,-888.247130,-7476.080014,-153.219100
163589.180165,-3997.112087,-9770.718434,-2834.553343
163589.180485,-4145.153275,-7772.162391,-2451.505594
163589.180805,-2072.576638,-9844.739029,-1838.629195
163589.181125,-2368.659014,-8364.327145,0.000000
163589.181445,666.185348,-8586.388927,459.657299
163589.181765,-1184.329507,-7920.203579,76.609550
163589.182084,-296.082377,-8364.327145,766.095498
163589.182404,222.061783,-7994.224174,-689.485948
163589.182724,1702.473667,-10658.965565,-76.609550
163589.183044,518.144159,-11843.295072,1762.019645
163589.183364,-1036.288319,-8512.368333,-1991.848295
163589.183684,-296.082377,-11399.171507,-689.485948
163589.184004,-1628.453072,-10140.821405,0.000000
163589.184324,-2220.617826,-8586.388927,-3064.381992
163589.184644,962.267725,-10732.986159,536.266849
163589.184964,1406.391290,-9178.553681,689.485948
163589.185283,2220.617826,-11029.068536,689.485948
163589.185603,4367.215058,-11251.130318,2681.334243
163589.185923,0.000000,-10140.821405,2451.505594
163589.186243,1110.308913,-11843.295072,2374.896044
163589.186563,-1850.514855,-6957.935855,76.609550
163589.186883,-4367.215058,-5995.668130,-1991.848295
163589.187203,-2368.659014,-7179.997637,0.000000
163589.187523,1110.308913,-7105.977043,-612.876398
163589.187843,-740.205942,-11621.233289,1225.752797
163589.188163,-1850.514855,-10658.965565,1915.238745
163589.188482,-4589.276840,-8068.244768,-2145.067394
163589.188802,-3404.947333,-9548.656652,-1302.362347
163589.189122,-2960.823768,-6957.935855,-2298.286494
163589.189442,74.020594,-7179.997637,-2451.505594
163589.189762,0.000000,-8660.409521,1838.629195
163589.190082,-74.020594,-9474.636058,2374.896044
163589.190402,-4145.153275,-7772.162391,0.000000
163589.190722,-1850.514855,-7994.224174,-536.266849
163589.191042,-1702.473667,-7772.162391,-2221.676944
163589.191361,1258.350101,-9844.739029,-842.705048
163589.191681,3478.967927,-8290.306550,-1302.362347
163589.192001,3182.885551,-11251.130318,-76.609550
163589.192321,666.185348,-10362.883188,-76.609550
163589.192641,-1998.556043,-7402.059420,-2374.896044
163589.192961,-2368.659014,-8956.491898,-2451.505594
163589.193281,888.247130,-9548.656652,-612.876398
163589.193601,1184.329507,-7179.997637,-1225.752797
163589.193921,2812.782580,-9474.636058,1838.629195
163589.194241,1554.432478,-9622.677246,2451.505594
163589.194560,-740.205942,-8142.265362,-919.314598
163589.194880,-74.020594,-9474.636058,-1302.362347
163589.195200,-1184.329507,-8364.327145,0.000000
163589.195520,2294.638420,-9474.636058,-1302.362347
163589.195840,1702.473667,-11991.336260,1149.143247
163589.196160,1702.473667,-11843.295072,-76.609550
163589.196480,-3256.906145,-10732.986159,612.876398
163589.196800,-4515.256246,-9178.553681,-919.314598
163589.197120,-3256.906145,-7402.059420,-3447.429741
163589.197439,-592.164754,-10288.862594,-1378.971896
163589.197759,592.164754,-7179.997637,0.000000
163589.198079,1702.473667,-9030.512492,-459.657299
163589.198399,296.082377,-9548.656652,1838.629195
163589.198719,-74.020594,-8142.265362,-76.609550
163589.199039,-1258.350101,-11251.130318,-1302.362347
163589.199359,-2886.803174,-10510.924376,-153.219100
163589.199679,-2368.659014,-8364.327145,-1838.629195
163589.199999,-74.020594,-11843.295072,229.828649
163589.200319,370.102971,-9474.636058,919.314598
163589.200638,-740.205942,-9696.697840,76.609550
163589.200958,-666.185348,-7105.977043,-383.047749
163589.201278,-74.020594,-6513.812290,-689.485948
163589.201598,0.000000,-7105.977043,-76.609550
163589.201918,0.000000,-7179.997637,0.000000
163589.202238,2738.761985,-11251.130318,2221.676944
163589.202558,2960.823768,-13471.748144,4826.401637
163589.202878,-2368.659014,-8956.491898,1225.752797
163589.203198,-3182.885551,-10066.800811,-1838.629195
163589.203518,-2516.700203,-10066.800811,-1455.581446
163589.203837,-1332.370696,-8364.327145,-2298.286494
163589.204157,-74.020594,-9178.553681,-1302.362347
163589.204477,370.102971,-10658.965565,-76.609550
163589.204797,-1776.494261,-7179.997637,-2451.505594
163589.205117,0.000000,-10732.986159,-919.314598
163589.205437,1702.473667,-10510.924376,2374.896044
163589.205757,-4145.153275,-5995.668130,-4903.011187
163589.206077,0.000000,-10066.800811,-842.705048
163589.206397,0.000000,-9474.636058,-1532.190996
163589.206716,444.123565,-12065.356855,-612.876398
163589.207036,2294.638420,-11843.295072,-76.609550
163589.207356,-814.226536,-8734.430116,-1762.019645
163589.207676,-2368.659014,-9548.656652,-2451.505594
163589.207996,-666.185348,-8068.244768,-3064.381992
163589.208316,1998.556043,-10658.965565,-689.485948
163589.208636,1998.556043,-7105.977043,-1762.019645
163589.208956,3182.885551,-7994.224174,-76.609550
163589.209276,1184.329507,-8438.347739,229.828649
163589.209596,444.123565,-8956.491898,766.095498
163589.209915,-74.020594,-7476.080014,-842.705048
163589.210235,-1184.329507,-9696.697840,2451.505594
163589.210555,-1406.391290,-8956.491898,689.485948
163589.210875,-1702.473667,-9326.594869,-919.314598
163589.211195,-666.185348,-9400.615463,766.095498
163589.211515,-888.247130,-5995.668130,-1838.629195
163589.211835,-962.267725,-7550.100608,-2528.115143
163589.212155,-1258.350101,-7920.203579,-2374.896044
163589.212475,-2960.823768,-9548.656652,-1838.629195
163589.212794,-1554.432478,-11917.315666,0.000000
163589.213114,-1258.350101,-10658.965565,-76.609550
163589.213434,-3552.988522,-8956.491898,-1225.752797
163589.213754,-518.144159,-8808.450710,-612.876398
163589.214074,1554.432478,-8290.306550,153.219100
163589.214394,1258.350101,-10214.842000,766.095498
163589.214714,814.226536,-11547.212695,1532.190996
163589.215034,-74.020594,-11843.295072,1455.581446
163589.215354,-148.041188,-12139.377449,76.609550
163589.215674,-1702.473667,-8364.327145,-1302.362347
163589.215993,-2960.823768,-6587.832884,0.000000
163589.216313,-74.020594,-9474.636058,1762.019645
163589.216633,-1776.494261,-6587.832884,-1225.752797
163589.216953,1110.308913,-10658.965565,-1378.971896
163589.217273,1110.308913,-12583.501014,1378.971896
163589.217593,-370.102971,-12065.356855,2911.162892
163589.217913,-2960.823768,-9548.656652,1378.971896
163589.218233,-1850.514855,-6883.915261,-76.609550
163589.218553,-2220.617826,-6587.832884,-1685.410096
163589.218872,1184.329507,-7179.997637,1838.629195
163589.219192,3478.967927,-8290.306550,2068.457845
163589.219512,0.000000,-7772.162391,612.876398
163589.219832,-1628.453072,-10658.965565,0.000000
163589.220152,-3627.009116,-10510.924376,-3064.381992
163589.220472,-3923.091493,-10658.965565,-3370.820191
163589.220792,-3330.926739,-8882.471304,-1608.800546
163589.221112,-74.020594,-9474.636058,-1302.362347
163589.221432,1110.308913,-9474.636058,-76.609550
163589.221752,1850.514855,-7846.182985,-689.485948
163589.222071,370.102971,-8364.327145,-1225.752797
163589.222391,592.164754,-9844.739029,2451.505594
163589.222711,-2220.617826,-6883.915261,-2068.457845
163589.223031,592.164754,-9992.780217,-689.485948
163589.223351,1184.329507,-8512.368333,0.000000
163589.223671,962.267725,-7476.080014,-1455.581446
163589.223991,3478.967927,-10658.965565,-76.609550
163589.224311,1628.453072,-9104.533087,842.705048
163589.224631,-1258.350101,-10658.965565,-3140.991542
163589.224951,-2516.700203,-10362.883188,-1455.581446
163589.225270,-1850.514855,-7994.224174,-3294.210641
163589.225590,-2368.659014,-9844.739029,1225.752797
163589.225910,0.000000,-7550.100608,919.314598
163589.226230,1628.453072,-7105.977043,919.314598
163589.226550,1332.370696,-6957.935855,995.924147
163589.226870,0.000000,-7846.182985,459.657299
163589.227190,-814.226536,-9474.636058,-383.047749
163589.227510,-3552.988522,-9548.656652,-1225.752797
163589.227830,-3256.906145,-10732.986159,-3064.381992
163589.228149,-2368.659014,-11917.315666,-1149.143247
163589.228469,-1850.514855,-11251.130318,-76.609550
163589.228789,-4737.318029,-7179.997637,0.000000
163589.229109,-222.061783,-8660.409521,-1685.410096
163589.229429,-666.185348,-7698.141797,-459.657299
163589.229749,1110.308913,-8956.491898,-229.828649
163589.230069,2294.638420,-10955.047942,1455.581446
163589.230389,3478.967927,-10658.965565,2374.896044
163589.230709,0.000000,-9548.656652,0.000000
163589.231029,-1184.329507,-9474.636058,3064.381992
163589.231348,-666.185348,-6217.729913,-1762.019645
163589.231668,888.247130,-9844.739029,1225.752797
163589.231988,0.000000,-7772.162391,0.000000
163589.232308,1702.473667,-11843.295072,1685.410096
163589.232628,-444.123565,-11325.150913,1838.629195
163589.232948,-3627.009116,-8142.265362,-1762.019645
163589.233268,-1258.350101,-10658.965565,-2528.115143
163589.233588,-74.020594,-9252.574275,612.876398
163589.233908,2886.803174,-9474.636058,1608.800546
163589.234227,1924.535449,-9104.533087,3600.648841
163589.234547,0.000000,-7179.997637,2451.505594
163589.234867,-2072.576638,-9548.656652,2451.505594
163589.235187,-1258.350101,-8586.388927,-842.705048
163589.235507,-2368.659014,-8142.265362,-1149.143247
163589.235827,-1702.473667,-9326.594869,-1915.238745
163589.236147,-1184.329507,-7772.162391,-3677.258390
163589.236467,-74.020594,-9844.739029,-4213.525239
163589.236787,0.000000,-11029.068536,-1838.629195
163589.237107,-296.082377,-11621.233289,-1225.752797
163589.237426,-74.020594,-11843.295072,-76.609550
163589.237746,-74.020594,-12435.459826,-76.609550
163589.238066,0.000000,-7772.162391,0.000000
163589.238386,518.144159,-8512.368333,0.000000
163589.238706,1554.432478,-7994.224174,2451.505594
163589.239026,740.205942,-7105.977043,229.828649
163589.239346,1554.432478,-7994.224174,-689.485948
163589.239666,-74.020594,-8290.306550,-536.266849
163589.239986,-1776.494261,-8734.430116,-1608.800546
163589.240306,-3256.906145,-9548.656652,0.000000
163589.240625,-814.226536,-10140.821405,536.266849
163589.240945,-74.020594,-11843.295072,1762.019645
163589.241265,-2072.576638,-8660.409521,0.000000
163589.241585,-888.247130,-7105.977043,-612.876398
163589.241905,-592.164754,-8734.430116,76.609550
163589.242225,0.000000,-8882.471304,1072.533697
163589.242545,-74.020594,-7550.100608,-76.609550
163589.242865,518.144159,-11843.295072,3600.648841
163589.243185,-2368.659014,-6291.750507,0.000000
163589.243504,-1184.329507,-8364.327145,-1225.752797
163589.243824,0.000000,-9548.656652,1225.752797
163589.244144,-3552.988522,-7179.997637,-3677.258390
163589.244464,-1554.432478,-12805.562797,-919.314598
163589.244784,-1850.514855,-12657.521608,-459.657299
163589.245104,-2738.761985,-10955.047942,-1685.410096
163589.245424,-74.020594,-11547.212695,-76.609550
163589.245744,222.061783,-6513.812290,-383.047749
163589.246064,0.000000,-5995.668130,-1225.752797
163589.246384,3701.029710,-9770.718434,2757.943793
163589.246703,5551.544565,-9474.636058,2681.334243
163589.247023,222.061783,-9844.739029,-1608.800546
163589.247343,-74.020594,-11843.295072,2068.457845
163589.247663,-2220.617826,-8438.347739,-1225.752797
163589.247983,-814.226536,-9252.574275,-1149.143247
163589.248303,740.205942,-9030.512492,-1608.800546
163589.248623,0.000000,-9844.739029,919.314598
163589.248943,-962.267725,-9770.718434,0.000000
163589.249263,-2368.659014,-9474.636058,-76.609550
163589.249582,-4441.235652,-9548.656652,-3370.820191
163589.249902,-2664.741391,-7772.162391,-4136.915689
163589.250222,-2590.720797,-5995.668130,-2451.505594
163589.250542,2146.597232,-7254.018232,1225.752797
163589.250862,4293.194464,-9474.636058,3294.210641
163589.251182,1110.308913,-9178.553681,-229.828649
163589.251502,-1258.350101,-10658.965565,-76.609550
163589.251822,-2368.659014,-10140.821405,-306.438199
163589.252142,-2294.638420,-9992.780217,-2911.162892
163589.252462,-1036.288319,-9844.739029,-2681.334243
163589.252781,-592.164754,-9548.656652,-1991.848295
163589.253101,0.000000,-8734.430116,-1302.362347
163589.253421,0.000000,-8364.327145,0.000000
163589.253741,1110.308913,-8586.388927,-1302.362347
163589.254061,-1184.329507,-7179.997637,-2528.115143
163589.254381,0.000000,-7179.997637,-1225.752797
163589.254701,5551.544565,-11547.212695,2374.896044
163589.255021,2960.823768,-9844.739029,3064.381992
163589.255341,814.226536,-9474.636058,1762.019645
163589.255661,-370.102971,-10732.986159,76.609550
163589.255980,-1628.453072,-9400.615463,-459.657299
163589.256300,-2368.659014,-7846.182985,-2451.505594
163589.256620,-2368.659014,-10140.821405,-766.095498
163589.256940,-1480.411884,-9548.656652,0.000000
163589.257260,-74.020594,-11843.295072,-76.609550
163589.257580,-1480.411884,-8660.409521,383.047749
163589.257900,-74.020594,-8882.471304,2374.896044
163589.258220,-1850.514855,-7772.162391,0.000000
163589.258540,740.205942,-9252.574275,153.219100
163589.258859,1110.308913,-11251.130318,1149.143247
163589.259179,0.000000,-10732.986159,2451.505594
163589.259499,-4737.318029,-7772.162391,0.000000
163589.259819,-5921.647536,-9548.656652,-2451.505594
163589.260139,-2664.741391,-9548.656652,-1378.971896
163589.260459,-666.185348,-8660.409521,-229.828649
163589.260779,1110.308913,-7105.977043,-76.609550
163589.261099,888.247130,-8068.244768,-76.609550
163589.261419,-1036.288319,-10436.903782,-995.924147
163589.261739,370.102971,-11843.295072,229.828649
163589.262058,1332.370696,-10732.986159,2374.896044
163589.262378,0.000000,-7772.162391,2374.896044
163589.262698,2886.803174,-7698.141797,1762.019645
163589.263018,0.000000,-6587.832884,0.000000
163589.263338,2220.617826,-8290.306550,612.876398
163589.263658,2886.803174,-12435.459826,2068.457845
163589.263978,2294.638420,-11843.295072,-76.609550
163589.264298,-2368.659014,-10732.986159,-1225.752797
163589.264618,-3034.844362,-10066.800811,-1838.629195
163589.264937,-2146.597232,-9474.636058,-3140.991542
163589.265257,-740.205942,-9992.780217,1225.752797
163589.265577,-444.123565,-7476.080014,0.000000
163589.265897,1110.308913,-9178.553681,536.266849
163589.266217,814.226536,-9474.636058,-76.609550
163589.266537,0.000000,-5403.503377,-2451.505594
163589.266857,0.000000,-9548.656652,-1685.410096
163589.267177,3478.967927,-11843.295072,-76.609550
163589.267497,-1776.494261,-9844.739029,-2451.505594
163589.267817,-3034.844362,-10807.006753,-1838.629195
163589.268137,-2516.700203,-8290.306550,-4443.353888
163589.268456,-1776.494261,-8364.327145,-2145.067394
163589.268776,0.000000,-8364.327145,-1225.752797
163589.269096,0.000000,-7179.997637,-2451.505594
163589.269416,740.205942,-11769.274478,153.219100
163589.269736,-74.020594,-9918.759623,1762.019645
163589.270056,-74.020594,-9030.512492,-383.047749
163589.270376,1110.308913,-8290.306550,-76.609550
163589.270696,0.000000,-5995.668130,612.876398
163589.271016,2294.638420,-7698.141797,459.657299
163589.271336,2368.659014,-9178.553681,1378.971896
163589.271656,592.164754,-11769.274478,3217.601092
163589.271976,-3552.988522,-9548.656652,-1532.190996
163589.272295,-5921.647536,-7179.997637,-2451.505594
163589.272615,-2738.761985,-9178.553681,-3140.991542
163589.272935,-74.020594,-13027.624579,-76.609550
163589.273255,222.061783,-7772.162391,0.000000
163589.273575,814.226536,-10955.047942,2681.334243
163589.273895,-1924.535449,-9696.697840,2221.676944
163589.274215,-2294.638420,-7105.977043,-1149.143247
163589.274535,-1258.350101,-8956.491898,-383.047749
163589.274855,592.164754,-8512.368333,1225.752797
163589.275175,1332.370696,-8808.450710,612.876398
163589.275495,2220.617826,-12509.480420,3983.696590
163589.275815,-74.020594,-9474.636058,2374.896044
163589.276134,-3627.009116,-7994.224174,-2451.505594
163589.276454,-4811.338623,-6883.915261,-5822.325785
163589.276774,518.144159,-10658.965565,-2451.505594
163589.277094,2442.679609,-12509.480420,919.314598
163589.277414,2664.741391,-11325.150913,4213.525239
163589.277734,-74.020594,-11843.295072,4519.963438
163589.278054,-518.144159,-9474.636058,1455.581446
163589.278374,-222.061783,-6809.894666,-76.609550
163589.278694,2294.638420,-7105.977043,-689.485948
163589.279014,2368.659014,-9548.656652,1225.752797
163589.279334,1184.329507,-8068.244768,0.000000
163589.279654,-222.061783,-11399.171507,-383.047749
163589.279973,-3478.967927,-10807.006753,-306.438199
163589.280293,-5551.544565,-8068.244768,-4903.011187
163589.280613,-4737.318029,-9844.739029,-2757.943793
163589.280933,-74.020594,-10362.883188,-76.609550
163589.281253,1776.494261,-8586.388927,-2451.505594
163589.281573,2072.576638,-10288.862594,3677.258390
163589.281893,1110.308913,-8882.471304,2374.896044
163589.282213,-666.185348,-9474.636058,-76.609550
163589.282533,-74.020594,-8290.306550,-1302.362347
163589.282853,0.000000,-7550.100608,-2145.067394
163589.283173,962.267725,-9178.553681,-612.876398
163589.283493,2516.700203,-9548.656652,689.485948
163589.283812,1406.391290,-10807.006753,612.876398
163589.284132,-1850.514855,-11325.150913,-612.876398
163589.284452,-1258.350101,-9474.636058,-2528.115143
163589.284772,-2590.720797,-10362.883188,-3140.991542
163589.285092,-1258.350101,-7179.997637,-2451.505594
163589.285412,3256.906145,-10362.883188,3064.381992
163589.285732,2368.659014,-9104.533087,3140.991542
163589.286052,2220.617826,-7031.956449,2528.115143
163589.286372,1258.350101,-8216.285956,1072.533697
163589.286692,-1554.432478,-7476.080014,-76.609550
163589.287012,-2146.597232,-6291.750507,-3370.820191
163589.287332,-1036.288319,-11251.130318,-995.924147
163589.287651,444.123565,-10584.944971,0.000000
163589.287971,-666.185348,-11473.192101,-153.219100
163589.288291,-2146.597232,-11695.253884,76.609550
163589.288611,-2442.679609,-11843.295072,-1302.362347
163589.288931,-3552.988522,-10140.821405,0.000000
163589.289251,-74.020594,-10658.965565,-76.609550
163589.289571,1110.308913,-8290.306550,3600.648841
163589.289891,2294.638420,-8956.491898,2451.505594
163589.290211,74.020594,-6809.894666,1455.581446
163589.290531,-518.144159,-6291.750507,229.828649
163589.290851,-2516.700203,-6957.935855,-2145.067394
163589.291171,-1702.473667,-8512.368333,-2451.505594
163589.291490,1406.391290,-10658.965565,-1302.362347
163589.291810,1924.535449,-13471.748144,842.705048
163589.292130,0.000000,-13101.645173,1532.190996
163589.292450,-222.061783,-11843.295072,612.876398
163589.292770,-1258.350101,-9474.636058,-76.609550
163589.293090,-3552.988522,-4811.338623,-3677.258390
163589.293410,2738.761985,-6513.812290,-1302.362347
163589.293730,4589.276840,-8068.244768,1608.800546
163589.294050,3849.070898,-8512.368333,2374.896044
163589.294370,888.247130,-10436.903782,1532.190996
163589.294690,-1924.535449,-8882.471304,-1302.362347
163589.295010,-2886.803174,-9474.636058,-3753.867940
163589.295329,-2220.617826,-9548.656652,-4826.401637
163589.295649,0.000000,-7772.162391,-3677.258390
163589.295969,1110.308913,-10436.903782,-459.657299
163589.296289,0.000000,-9548.656652,-2451.505594
163589.296609,-740.205942,-9474.636058,-2528.115143
163589.296929,-2812.782580,-10658.965565,-2068.457845
163589.297249,-3923.091493,-7920.203579,-5132.839837
163589.297569,-1850.514855,-7105.977043,-4979.620737
163589.297889,2294.638420,-8290.306550,-1915.238745
163589.298209,3478.967927,-9474.636058,-689.485948
163589.298529,1702.473667,-8882.471304,-3907.087040
163589.298849,-1184.329507,-8956.491898,-4596.572988
163589.299168,-2368.659014,-9548.656652,-4903.011187
163589.299488,-3256.906145,-8364.327145,-8044.002729
163589.299808,-592.164754,-11399.171507,-4979.620737
163589.300128,1258.350101,-11103.089130,-3524.039291
163589.300448,2368.659014,-8660.409521,-2834.553343
163589.300768,4071.132681,-9474.636058,-2528.115143
163589.301088,0.000000,-7179.997637,-3677.258390
163589.301408,-74.020594,-7994.224174,-6205.373534
163589.301728,-444.123565,-7105.977043,-7124.688131
163589.302048,-666.185348,-8142.265362,-6205.373534
163589.302368,0.000000,-7476.080014,-4290.134789
163589.302688,1110.308913,-8586.388927,-5286.058936
163589.303007,1036.288319,-11695.253884,-4826.401637
163589.303327,148.041188,-11843.295072,-4979.620737
163589.303647,-1036.288319,-11917.315666,-4673.182538
163589.303967,-148.041188,-9622.677246,-4366.744339
163589.304287,-2960.823768,-8068.244768,-5515.887586
163589.304607,0.000000,-7476.080014,-6128.763984
163589.304927,0.000000,-6587.832884,-5515.887586
163589.305247,-74.020594,-8734.430116,-5592.497135
163589.305567,-2368.659014,-7179.997637,-7354.516781
163589.305887,-2146.597232,-9178.553681,-6665.030833
163589.306207,-1258.350101,-10214.842000,-6894.859482
163589.306527,-962.267725,-10584.944971,-6358.592633
163589.306846,2294.638420,-11843.295072,-4060.306139
163589.307166,4663.297435,-11251.130318,-2528.115143
163589.307486,4071.132681,-9474.636058,-1302.362347
163589.307806,-1554.432478,-9548.656652,-5592.497135
163589.308126,-1776.494261,-10140.821405,-2451.505594
163589.308446,-1184.329507,-8660.409521,-4903.011187
163589.308766,0.000000,-6587.832884,-4903.011187
163589.309086,-962.267725,-7105.977043,-7890.783629
163589.309406,-518.144159,-9622.677246,-3294.210641
163589.309726,444.123565,-7624.121203,-5209.449386
163589.310046,3478.967927,-9474.636058,-1608.800546
163589.310366,-1110.308913,-10140.821405,-4290.134789
163589.310686,-148.041188,-13619.789333,-1915.238745
163589.311005,-1554.432478,-11251.130318,-2528.115143
163589.311325,3478.967927,-11251.130318,-76.609550
163589.311645,-2368.659014,-8364.327145,-1225.752797
163589.311965,-1554.432478,-8586.388927,-1378.971896
163589.312285,-1998.556043,-5773.606348,-3677.258390
163589.312605,814.226536,-7846.182985,-536.266849
163589.312925,0.000000,-5551.544565,-6741.640382
163589.313245,-2664.741391,-8956.491898,-5975.544884
163589.313565,-4145.153275,-9548.656652,-5515.887586
163589.313885,-74.020594,-10510.924376,-4290.134789
163589.314205,1184.329507,-12509.480420,-1838.629195
163589.314525,-74.020594,-11843.295072,-1302.362347
163589.314844,0.000000,-10732.986159,0.000000
163589.315164,592.164754,-8586.388927,153.219100
163589.315484,3997.112087,-8734.430116,1072.533697
163589.315804,2664.741391,-6883.915261,536.266849
163589.316124,1998.556043,-6513.812290,-995.924147
163589.316444,-74.020594,-7698.141797,-995.924147
163589.316764,148.041188,-7698.141797,-2528.115143
163589.317084,-1184.329507,-7772.162391,-3524.039291
163589.317404,-1924.535449,-9696.697840,-2757.943793
163589.317724,-888.247130,-12065.356855,-1302.362347
163589.318044,-2220.617826,-10436.903782,-2145.067394
163589.318364,1332.370696,-11177.109724,-76.609550
163589.318683,888.247130,-11621.233289,1455.581446
163589.319003,962.267725,-7476.080014,229.828649
163589.319323,-74.020594,-5625.565159,-76.609550
163589.319643,1702.473667,-8882.471304,-76.609550
163589.319963,-222.061783,-7402.059420,-2834.553343
163589.320283,-2072.576638,-10732.986159,0.000000
163589.320603,-3552.988522,-9548.656652,-1225.752797
163589.320923,-4737.318029,-7772.162391,-4903.011187
163589.321243,-4589.276840,-10066.800811,-3983.696590
163589.321563,-4663.297435,-9474.636058,-5362.668486
163589.321883,-2146.597232,-10881.027347,-2987.772442
163589.322203,3478.967927,-11547.212695,-76.609550
163589.322522,2590.720797,-9178.553681,0.000000
163589.322842,0.000000,-7402.059420,-2451.505594
163589.323162,-2368.659014,-6587.832884,-6128.763984
163589.323482,-1036.288319,-9252.574275,-1991.848295
163589.323802,1110.308913,-6883.915261,-4979.620737
163589.324122,2294.638420,-9474.636058,-3140.991542
163589.324442,1036.288319,-10732.986159,-2528.115143
163589.324762,740.205942,-10436.903782,-3370.820191
163589.325082,-1554.432478,-11991.336260,-4213.525239
163589.325402,-2368.659014,-10140.821405,-2451.505594
163589.325722,-1998.556043,-8734.430116,-5286.058936
163589.326042,0.000000,-8882.471304,-3447.429741
163589.326361,3256.906145,-6809.894666,-3064.381992
163589.326681,1998.556043,-6587.832884,-4290.134789
163589.327001,814.226536,-6217.729913,-4979.620737
163589.327321,-74.020594,-9474.636058,-3753.867940
163589.327641,-3256.906145,-8364.327145,-6435.202183
163589.327961,-1702.473667,-8364.327145,-7354.516781
163589.328281,-370.102971,-12731.542202,-3753.867940
163589.328601,0.000000,-10732.986159,-3677.258390
163589.328921,1184.329507,-9030.512492,-4673.182538
163589.329241,-1628.453072,-9548.656652,-4366.744339
163589.329561,-1998.556043,-8956.491898,-6665.030833
163589.329881,-1258.350101,-8438.347739,-7354.516781
163589.330200,296.082377,-7772.162391,-5286.058936
163589.330520,3775.050304,-9326.594869,-4060.306139
163589.330840,4367.215058,-11695.253884,-1915.238745
163589.331160,3478.967927,-9474.636058,-3140.991542
163589.331480,888.247130,-11769.274478,-3447.429741
163589.331800,-3552.988522,-10881.027347,-6741.640382
163589.332120,-1480.411884,-12213.398043,-5592.497135
163589.332440,-444.123565,-11029.068536,-2834.553343
163589.332760,1628.453072,-9326.594869,-2451.505594
163589.333080,1554.432478,-7476.080014,-3677.258390
163589.333400,1850.514855,-7772.162391,-1378.971896
163589.333720,0.000000,-4811.338623,-3064.381992
163589.334039,-1924.535449,-9030.512492,-4673.182538
163589.334359,-3627.009116,-10658.965565,-5898.935335
163589.334679,-2368.659014,-12213.398043,-1532.190996
163589.334999,-888.247130,-9030.512492,-3524.039291
163589.335319,444.123565,-8586.388927,-3217.601092
163589.335639,0.000000,-8364.327145,-3753.867940
163589.335959,0.000000,-7476.080014,-4903.011187
163589.336279,0.000000,-6587.832884,-4826.401637
163589.336599,-74.020594,-8882.471304,-4979.620737
163589.336919,-3627.009116,-10140.821405,-5439.278036
163589.337239,-3552.988522,-10436.903782,-5132.839837
163589.337559,-1258.350101,-13619.789333,-1608.800546
163589.337878,-1184.329507,-10436.903782,-1685.410096
163589.338198,-296.082377,-7698.141797,-2987.772442
163589.338518,148.041188,-7402.059420,-3447.429741
163589.338838,2516.700203,-8068.244768,-3294.210641
163589.339158,3775.050304,-8586.388927,-1455.581446
163589.339478,3923.091493,-9770.718434,-612.876398
163589.339798,1406.391290,-9474.636058,-2834.553343
163589.340118,-1850.514855,-11843.295072,-4979.620737
163589.340438,-4737.318029,-10732.986159,-7201.297681
163589.340758,-2442.679609,-15396.283594,-1608.800546
